digitSpanForward,digits,digitsReverse,digitSpanReverse,digitsReverseCorrAnswer,trialNumber,trialFSPractice.thisRepN,trialFSPractice.thisTrialN,trialFSPractice.thisN,trialFSPractice.thisIndex,DigitLoopPractice.thisRepN,DigitLoopPractice.thisTrialN,DigitLoopPractice.thisN,DigitLoopPractice.thisIndex,trialsFS.thisRepN,trialsFS.thisTrialN,trialsFS.thisN,trialsFS.thisIndex,digitLoop.thisRepN,digitLoop.thisTrialN,digitLoop.thisN,digitLoop.thisIndex,trialsPracticeBS.thisRepN,trialsPracticeBS.thisTrialN,trialsPracticeBS.thisN,trialsPracticeBS.thisIndex,digitLoopPracticeBS.thisRepN,digitLoopPracticeBS.thisTrialN,digitLoopPracticeBS.thisN,digitLoopPracticeBS.thisIndex,trialsBS.thisRepN,trialsBS.thisTrialN,trialsBS.thisN,trialsBS.thisIndex,digitLoopBS.thisRepN,digitLoopBS.thisTrialN,digitLoopBS.thisN,digitLoopBS.thisIndex,thisRow.t,notes,GenInsText.started,movealong.started,movealong.keys,movealong.rt,Reminder1.started,movealong2.started,movealong2.keys,movealong2.rt,Reminder2.started,movealong3.started,movealong3.keys,movealong3.rt,FSGenInsText.started,startPractice.started,startPractice.keys,startPractice.rt,fixation_2.started,pres_text_practice.started,fixation_2.stopped,pres_text_practice.stopped,recall_txtPractice.started,textboxPractice.started,cont_buttonPractice.started,mousePractice.started,textboxPractice.text,correct,mousePractice.x,mousePractice.y,mousePractice.leftButton,mousePractice.midButton,mousePractice.rightButton,mousePractice.clicked_name,feedbac_textPractice.started,feedbac_textPractice.stopped,praccomplete.started,startFSreal.started,startFSreal.keys,startFSreal.rt,fixation.started,presentation_text.started,fixation.stopped,presentation_text.stopped,digitsForTrial,recall_txt.started,textbox.started,cont_button.started,mouse_3.started,textbox.text,mouse_3.x,mouse_3.y,mouse_3.leftButton,mouse_3.midButton,mouse_3.rightButton,mouse_3.clicked_name,feedback_text.started,feedback_text.stopped,roundTransition.started,moveToBS.started,moveToBS.keys,moveToBS.rt,BSGenInsText.started,startBSprac.started,startBSprac.keys,startBSprac.rt,fixation_3.started,pres_text_practice_2.started,fixation_3.stopped,pres_text_practice_2.stopped,recall_txtPractice_2.started,textboxPractice_2.started,cont_buttonPractice_2.started,mousePractice_2.started,textboxPractice_2.text,mousePractice_2.x,mousePractice_2.y,mousePractice_2.leftButton,mousePractice_2.midButton,mousePractice_2.rightButton,mousePractice_2.clicked_name,feedbac_textPractice_2.started,feedbac_textPractice_2.stopped,praccompleteBS.started,startBSreal.started,startBSreal.keys,startBSreal.rt,fixationBS.started,presentation_textBS.started,fixationBS.stopped,presentation_textBS.stopped,recall_txtBS.started,textboxBS.started,cont_buttonBS.started,mouseBS.started,textboxBS.text,mouseBS.x,mouseBS.y,mouseBS.leftButton,mouseBS.midButton,mouseBS.rightButton,mouseBS.clicked_name,feedback_textBS.started,feedback_textBS.stopped,ThankYou.started,ThankYou.stopped,participant,date,expName,psychopyVersion,frameRate,
,,,,,,,,,,,,,,,,,,,,,,,,,,,,,,,,,,,,,,,,17.982751208997797,17.982751208997797,return,1.124073375001899,,,,,,,,,,,,,,,,,,,,,,,,,,,,,,,,,,,,,,,,,,,,,,,,,,,,,,,,,,,,,,,,,,,,,,,,,,,,,,,,,,,,,,,,,,,,,,,,,,,,,001,2025-07-26_18h52.25.868,CGTriskyDMtask,2022.2.1,60.248041187566294,
,,,,,,,,,,,,,,,,,,,,,,,,,,,,,,,,,,,,,,,,,,,,19.1892659169971,19.1892659169971,return,0.01814633399771992,,,,,,,,,,,,,,,,,,,,,,,,,,,,,,,,,,,,,,,,,,,,,,,,,,,,,,,,,,,,,,,,,,,,,,,,,,,,,,,,,,,,,,,,,,,,,,,,,001,2025-07-26_18h52.25.868,CGTriskyDMtask,2022.2.1,60.248041187566294,
,,,,,,,,,,,,,,,,,,,,,,,,,,,,,,,,,,,,,,,,,,,,,,,,19.221204624991515,19.221204624991515,return,0.12144454100052826,,,,,,,,,,,,,,,,,,,,,,,,,,,,,,,,,,,,,,,,,,,,,,,,,,,,,,,,,,,,,,,,,,,,,,,,,,,,,,,,,,,,,,,,,,,,,001,2025-07-26_18h52.25.868,CGTriskyDMtask,2022.2.1,60.248041187566294,
,,,,,,,,,,,,,,,,,,,,,,,,,,,,,,,,,,,,,,,,,,,,,,,,,,,,19.37127495900495,19.37127495900495,return,7.291129792007268,,,,,,,,,,,,,,,,,,,,,,,,,,,,,,,,,,,,,,,,,,,,,,,,,,,,,,,,,,,,,,,,,,,,,,,,,,,,,,,,,,,,,,,,,001,2025-07-26_18h52.25.868,CGTriskyDMtask,2022.2.1,60.248041187566294,
3,342,24,2,42,,0,0,0,0,,,,,,,,,,,,,,,,,,,,,,,,,,,,,,,,,,,,,,,,,,,,,,,30.68925529200351,31.69048441700579,31.69048441700579,30.68925529200351,32.70545291699818,32.70545291699818,32.70545291699818,0.01639358399552293,789,0,0.0022222222222222222,-0.4011111111111111,1,0,0,cont_buttonPractice,36.12228262500139,37.12277874999563,,,,,,,,,,,,,,,,,,,,,,,,,,,,,,,,,,,,,,,,,,,,,,,,,,,,,,,,,,,,,,,,,,,,,,,001,2025-07-26_18h52.25.868,CGTriskyDMtask,2022.2.1,60.248041187566294,
3,937,73,2,37,,0,1,1,1,,,,,,,,,,,,,,,,,,,,,,,,,,,,,,,,,,,,,,,,,,,,,,,41.122476834003464,42.12221191699791,42.12221191699791,43.1231653750001,43.1231653750001,43.1231653750001,43.1231653750001,0.014652334008133039,789,0,0.0022222222222222222,-0.4011111111111111,1,0,0,cont_buttonPractice,46.472484792000614,47.47255762500572,,,,,,,,,,,,,,,,,,,,,,,,,,,,,,,,,,,,,,,,,,,,,,,,,,,,,,,,,,,,,,,,,,,,,,,001,2025-07-26_18h52.25.868,CGTriskyDMtask,2022.2.1,60.248041187566294,
,,,,,,,,,,,,,,,,,,,,,,,,,,,,,,,,,,,,,,,,,,,,,,,,,,,,,,,,,,,,,,,,,,,,,,,,,,47.47255762500572,47.47255762500572,return,4.842389708006522,,,,,,,,,,,,,,,,,,,,,,,,,,,,,,,,,,,,,,,,,,,,,,,,,,,,,,,,,,,,,,,,,,,001,2025-07-26_18h52.25.868,CGTriskyDMtask,2022.2.1,60.248041187566294,
,,,,,1,,,,,,,,,0,0,0,0,0,0,0,0,,,,,,,,,,,,,,,,,,,,,,,,,,,,,,,,,,,,,,,,,,,,,,,,,,,,,,,,,52.34152425000502,53.34002995899937,53.3562912089983,54.339612750001834,"[1, 2, 7]",,,,,,,,,,,,,,,,,,,,,,,,,,,,,,,,,,,,,,,,,,,,,,,,,,,,,,,,,,,,,,001,2025-07-26_18h52.25.868,CGTriskyDMtask,2022.2.1,60.248041187566294,
,,,,,1,,,,,,,,,0,0,0,0,1,0,1,0,,,,,,,,,,,,,,,,,,,,,,,,,,,,,,,,,,,,,,,,,,,,,,,,,,,,,,,,,54.339612750001834,55.33971529199334,55.33971529199334,56.34054762500455,"[1, 2, 7]",,,,,,,,,,,,,,,,,,,,,,,,,,,,,,,,,,,,,,,,,,,,,,,,,,,,,,,,,,,,,,001,2025-07-26_18h52.25.868,CGTriskyDMtask,2022.2.1,60.248041187566294,
,,,,,1,,,,,,,,,0,0,0,0,2,0,2,0,,,,,,,,,,,,,,,,,,,,,,,,,,,,,,,,,,,,,,,,,,,,,,,,,,,,,,,,,56.34054762500455,57.34038108399545,57.34038108399545,58.33983574999729,"[1, 2, 7]",,,,,,,,,,,,,,,,,,,,,,,,,,,,,,,,,,,,,,,,,,,,,,,,,,,,,,,,,,,,,,001,2025-07-26_18h52.25.868,CGTriskyDMtask,2022.2.1,60.248041187566294,
,,,,,1,,,,,,,,,0,0,0,0,,,,,,,,,,,,,,,,,,,,,,,,,,,,,,,,,,,,,,,,,,,,,,,,0,,,,,,,,,,,,,,,,,,58.33983574999729,58.33983574999729,58.33983574999729,0.00875345800886862,6789,0.0022222222222222222,-0.4011111111111111,1,0,0,cont_button,60.48975525000424,61.49033454200253,,,,,,,,,,,,,,,,,,,,,,,,,,,,,,,,,,,,,,,,,,,,,,,,,001,2025-07-26_18h52.25.868,CGTriskyDMtask,2022.2.1,60.248041187566294,
,,,,,2,,,,,,,,,0,1,1,1,0,0,0,0,,,,,,,,,,,,,,,,,,,,,,,,,,,,,,,,,,,,,,,,,,,,,,,,,,,,,,,,,61.49033454200253,62.47329125000397,62.48983816699183,63.4734562090016,"[1, 3, 4]",,,,,,,,,,,,,,,,,,,,,,,,,,,,,,,,,,,,,,,,,,,,,,,,,,,,,,,,,,,,,,001,2025-07-26_18h52.25.868,CGTriskyDMtask,2022.2.1,60.248041187566294,
,,,,,2,,,,,,,,,0,1,1,1,1,0,1,0,,,,,,,,,,,,,,,,,,,,,,,,,,,,,,,,,,,,,,,,,,,,,,,,,,,,,,,,,63.4734562090016,64.47418474999722,64.47418474999722,65.47344283400162,"[1, 3, 4]",,,,,,,,,,,,,,,,,,,,,,,,,,,,,,,,,,,,,,,,,,,,,,,,,,,,,,,,,,,,,,001,2025-07-26_18h52.25.868,CGTriskyDMtask,2022.2.1,60.248041187566294,
,,,,,2,,,,,,,,,0,1,1,1,2,0,2,0,,,,,,,,,,,,,,,,,,,,,,,,,,,,,,,,,,,,,,,,,,,,,,,,,,,,,,,,,65.47344283400162,66.47347966699454,66.47347966699454,67.47356949999812,"[1, 3, 4]",,,,,,,,,,,,,,,,,,,,,,,,,,,,,,,,,,,,,,,,,,,,,,,,,,,,,,,,,,,,,,001,2025-07-26_18h52.25.868,CGTriskyDMtask,2022.2.1,60.248041187566294,
,,,,,2,,,,,,,,,0,1,1,1,,,,,,,,,,,,,,,,,,,,,,,,,,,,,,,,,,,,,,,,,,,,,,,,0,,,,,,,,,,,,,,,,,,67.47356949999812,67.47356949999812,67.47356949999812,-0.0007373330008704215,5678,0.0022222222222222222,-0.4011111111111111,1,0,0,cont_button,70.14108645899978,71.1409547499934,,,,,,,,,,,,,,,,,,,,,,,,,,,,,,,,,,,,,,,,,,,,,,,,,001,2025-07-26_18h52.25.868,CGTriskyDMtask,2022.2.1,60.248041187566294,
,,,,,3,,,,,,,,,0,2,2,2,0,0,0,0,,,,,,,,,,,,,,,,,,,,,,,,,,,,,,,,,,,,,,,,,,,,,,,,,,,,,,,,,71.1409547499934,72.12459412499447,72.14133337499516,73.12388324999483,"[9, 3, 2]",,,,,,,,,,,,,,,,,,,,,,,,,,,,,,,,,,,,,,,,,,,,,,,,,,,,,,,,,,,,,,001,2025-07-26_18h52.25.868,CGTriskyDMtask,2022.2.1,60.248041187566294,
,,,,,3,,,,,,,,,0,2,2,2,1,0,1,0,,,,,,,,,,,,,,,,,,,,,,,,,,,,,,,,,,,,,,,,,,,,,,,,,,,,,,,,,73.12388324999483,74.1416368749924,74.12398208399827,,"[9, 3, 2]",,,,,,,,,,,,,,,,,,,,,,,,,,,,,,,,,,,,,,,,,,,,,,,,,,,,,,,,,,,,,,001,2025-07-26_18h52.25.868,CGTriskyDMtask,2022.2.1,60.248041187566294,
,,,,,3,,,,,,,,,0,2,2,2,2,0,2,0,,,,,,,,,,,,,,,,,,,,,,,,,,,,,,,,,,,,,,,,,,,,,,,,,,,,,,,,,75.15722912500496,76.14175308399717,76.1582033339946,,"[9, 3, 2]",,,,,,,,,,,,,,,,,,,,,,,,,,,,,,,,,,,,,,,,,,,,,,,,,,,,,,,,,,,,,,001,2025-07-26_18h52.25.868,CGTriskyDMtask,2022.2.1,60.248041187566294,
,,,,,3,,,,,,,,,0,2,2,2,,,,,,,,,,,,,,,,,,,,,,,,,,,,,,,,,,,,,,,,,,,,,,,,0,,,,,,,,,,,,,,,,,,77.15841999999247,77.15841999999247,77.15841999999247,0.01614141699974425,6789,0.0022222222222222222,-0.4011111111111111,1,0,0,cont_button,79.10730424999201,80.10732650000136,,,,,,,,,,,,,,,,,,,,,,,,,,,,,,,,,,,,,,,,,,,,,,,,,001,2025-07-26_18h52.25.868,CGTriskyDMtask,2022.2.1,60.248041187566294,
,,,,,4,,,,,,,,,0,3,3,3,0,0,0,0,,,,,,,,,,,,,,,,,,,,,,,,,,,,,,,,,,,,,,,,,,,,,,,,,,,,,,,,,80.10732650000136,81.09074583399342,81.10780137499387,82.09068804199342,"[3, 8, 2]",,,,,,,,,,,,,,,,,,,,,,,,,,,,,,,,,,,,,,,,,,,,,,,,,,,,,,,,,,,,,,001,2025-07-26_18h52.25.868,CGTriskyDMtask,2022.2.1,60.248041187566294,
,,,,,4,,,,,,,,,0,3,3,3,1,0,1,0,,,,,,,,,,,,,,,,,,,,,,,,,,,,,,,,,,,,,,,,,,,,,,,,,,,,,,,,,82.09068804199342,83.09152474999428,83.09152474999428,84.09077920900017,"[3, 8, 2]",,,,,,,,,,,,,,,,,,,,,,,,,,,,,,,,,,,,,,,,,,,,,,,,,,,,,,,,,,,,,,001,2025-07-26_18h52.25.868,CGTriskyDMtask,2022.2.1,60.248041187566294,
,,,,,4,,,,,,,,,0,3,3,3,2,0,2,0,,,,,,,,,,,,,,,,,,,,,,,,,,,,,,,,,,,,,,,,,,,,,,,,,,,,,,,,,84.09077920900017,85.09083512499637,85.09083512499637,86.09093204200326,"[3, 8, 2]",,,,,,,,,,,,,,,,,,,,,,,,,,,,,,,,,,,,,,,,,,,,,,,,,,,,,,,,,,,,,,001,2025-07-26_18h52.25.868,CGTriskyDMtask,2022.2.1,60.248041187566294,
,,,,,4,,,,,,,,,0,3,3,3,,,,,,,,,,,,,,,,,,,,,,,,,,,,,,,,,,,,,,,,,,,,,,,,0,,,,,,,,,,,,,,,,,,86.09093204200326,86.09093204200326,86.09093204200326,-0.0004987090069334954,5678,-0.0044444444444444444,-0.4011111111111111,1,0,0,cont_button,88.07505183399189,89.0740474589984,,,,,,,,,,,,,,,,,,,,,,,,,,,,,,,,,,,,,,,,,,,,,,,,,001,2025-07-26_18h52.25.868,CGTriskyDMtask,2022.2.1,60.248041187566294,
,,,,,5,,,,,,,,,0,4,4,4,0,0,0,0,,,,,,,,,,,,,,,,,,,,,,,,,,,,,,,,,,,,,,,,,,,,,,,,,,,,,,,,,89.0740474589984,90.05775862500013,90.07458254200174,91.05778754199855,"[4, 8, 1]",,,,,,,,,,,,,,,,,,,,,,,,,,,,,,,,,,,,,,,,,,,,,,,,,,,,,,,,,,,,,,001,2025-07-26_18h52.25.868,CGTriskyDMtask,2022.2.1,60.248041187566294,
,,,,,5,,,,,,,,,0,4,4,4,1,0,1,0,,,,,,,,,,,,,,,,,,,,,,,,,,,,,,,,,,,,,,,,,,,,,,,,,,,,,,,,,91.07441833399935,92.05846562499937,92.07532429200364,93.05826608400093,"[4, 8, 1]",,,,,,,,,,,,,,,,,,,,,,,,,,,,,,,,,,,,,,,,,,,,,,,,,,,,,,,,,,,,,,001,2025-07-26_18h52.25.868,CGTriskyDMtask,2022.2.1,60.248041187566294,
,,,,,5,,,,,,,,,0,4,4,4,2,0,2,0,,,,,,,,,,,,,,,,,,,,,,,,,,,,,,,,,,,,,,,,,,,,,,,,,,,,,,,,,93.05826608400093,94.05796870899212,94.05796870899212,95.05850508400181,"[4, 8, 1]",,,,,,,,,,,,,,,,,,,,,,,,,,,,,,,,,,,,,,,,,,,,,,,,,,,,,,,,,,,,,,001,2025-07-26_18h52.25.868,CGTriskyDMtask,2022.2.1,60.248041187566294,
,,,,,5,,,,,,,,,0,4,4,4,,,,,,,,,,,,,,,,,,,,,,,,,,,,,,,,,,,,,,,,,,,,,,,,0,,,,,,,,,,,,,,,,,,95.05850508400181,95.05850508400181,95.05850508400181,-0.00016570799925830215,56789,-0.008888888888888889,-0.4011111111111111,1,0,0,cont_button,96.4582269169914,97.45833512500394,,,,,,,,,,,,,,,,,,,,,,,,,,,,,,,,,,,,,,,,,,,,,,,,,001,2025-07-26_18h52.25.868,CGTriskyDMtask,2022.2.1,60.248041187566294,
,,,,,6,,,,,,,,,0,5,5,5,0,0,0,0,,,,,,,,,,,,,,,,,,,,,,,,,,,,,,,,,,,,,,,,,,,,,,,,,,,,,,,,,97.45833512500394,98.44161866699869,98.45867599999474,99.44152791699162,"[1, 6, 5]",,,,,,,,,,,,,,,,,,,,,,,,,,,,,,,,,,,,,,,,,,,,,,,,,,,,,,,,,,,,,,001,2025-07-26_18h52.25.868,CGTriskyDMtask,2022.2.1,60.248041187566294,
,,,,,6,,,,,,,,,0,5,5,5,1,0,1,0,,,,,,,,,,,,,,,,,,,,,,,,,,,,,,,,,,,,,,,,,,,,,,,,,,,,,,,,,99.44152791699162,100.44143416700535,100.44143416700535,101.44235412499984,"[1, 6, 5]",,,,,,,,,,,,,,,,,,,,,,,,,,,,,,,,,,,,,,,,,,,,,,,,,,,,,,,,,,,,,,001,2025-07-26_18h52.25.868,CGTriskyDMtask,2022.2.1,60.248041187566294,
,,,,,6,,,,,,,,,0,5,5,5,2,0,2,0,,,,,,,,,,,,,,,,,,,,,,,,,,,,,,,,,,,,,,,,,,,,,,,,,,,,,,,,,101.44235412499984,102.44246045900218,102.44246045900218,103.44158083399816,"[1, 6, 5]",,,,,,,,,,,,,,,,,,,,,,,,,,,,,,,,,,,,,,,,,,,,,,,,,,,,,,,,,,,,,,001,2025-07-26_18h52.25.868,CGTriskyDMtask,2022.2.1,60.248041187566294,
,,,,,6,,,,,,,,,0,5,5,5,,,,,,,,,,,,,,,,,,,,,,,,,,,,,,,,,,,,,,,,,,,,,,,,0,,,,,,,,,,,,,,,,,,103.44158083399816,103.44158083399816,103.44158083399816,-0.0006059169973013923,5678,-0.008888888888888889,-0.4011111111111111,1,0,0,cont_button,106.30829754199658,107.30844954200438,,,,,,,,,,,,,,,,,,,,,,,,,,,,,,,,,,,,,,,,,,,,,,,,,001,2025-07-26_18h52.25.868,CGTriskyDMtask,2022.2.1,60.248041187566294,
,,,,,7,,,,,,,,,0,6,6,6,0,0,0,0,,,,,,,,,,,,,,,,,,,,,,,,,,,,,,,,,,,,,,,,,,,,,,,,,,,,,,,,,107.30844954200438,108.2916863749997,108.3086956670013,109.29175045900047,"[6, 1, 2]",,,,,,,,,,,,,,,,,,,,,,,,,,,,,,,,,,,,,,,,,,,,,,,,,,,,,,,,,,,,,,001,2025-07-26_18h52.25.868,CGTriskyDMtask,2022.2.1,60.248041187566294,
,,,,,7,,,,,,,,,0,6,6,6,1,0,1,0,,,,,,,,,,,,,,,,,,,,,,,,,,,,,,,,,,,,,,,,,,,,,,,,,,,,,,,,,109.29175045900047,110.30850874999305,110.29179087499506,111.30943579200539,"[6, 1, 2]",,,,,,,,,,,,,,,,,,,,,,,,,,,,,,,,,,,,,,,,,,,,,,,,,,,,,,,,,,,,,,001,2025-07-26_18h52.25.868,CGTriskyDMtask,2022.2.1,60.248041187566294,
,,,,,7,,,,,,,,,0,6,6,6,2,0,2,0,,,,,,,,,,,,,,,,,,,,,,,,,,,,,,,,,,,,,,,,,,,,,,,,,,,,,,,,,111.30943579200539,112.30889145900437,112.30889145900437,113.30888958400465,"[6, 1, 2]",,,,,,,,,,,,,,,,,,,,,,,,,,,,,,,,,,,,,,,,,,,,,,,,,,,,,,,,,,,,,,001,2025-07-26_18h52.25.868,CGTriskyDMtask,2022.2.1,60.248041187566294,
,,,,,7,,,,,,,,,0,6,6,6,,,,,,,,,,,,,,,,,,,,,,,,,,,,,,,,,,,,,,,,,,,,,,,,0,,,,,,,,,,,,,,,,,,113.30888958400465,113.30888958400465,113.30888958400465,0.0006480000010924414,56789,-0.008888888888888889,-0.4011111111111111,1,0,0,cont_button,114.8754625839938,115.87575779200415,,,,,,,,,,,,,,,,,,,,,,,,,,,,,,,,,,,,,,,,,,,,,,,,,001,2025-07-26_18h52.25.868,CGTriskyDMtask,2022.2.1,60.248041187566294,
,,,,,8,,,,,,,,,0,7,7,7,0,0,0,0,,,,,,,,,,,,,,,,,,,,,,,,,,,,,,,,,,,,,,,,,,,,,,,,,,,,,,,,,115.87575779200415,116.85904383400339,116.8755486250011,117.8590888339968,"[7, 2, 6]",,,,,,,,,,,,,,,,,,,,,,,,,,,,,,,,,,,,,,,,,,,,,,,,,,,,,,,,,,,,,,001,2025-07-26_18h52.25.868,CGTriskyDMtask,2022.2.1,60.248041187566294,
,,,,,8,,,,,,,,,0,7,7,7,1,0,1,0,,,,,,,,,,,,,,,,,,,,,,,,,,,,,,,,,,,,,,,,,,,,,,,,,,,,,,,,,117.8590888339968,118.858950541995,118.858950541995,119.85946970900113,"[7, 2, 6]",,,,,,,,,,,,,,,,,,,,,,,,,,,,,,,,,,,,,,,,,,,,,,,,,,,,,,,,,,,,,,001,2025-07-26_18h52.25.868,CGTriskyDMtask,2022.2.1,60.248041187566294,
,,,,,8,,,,,,,,,0,7,7,7,2,0,2,0,,,,,,,,,,,,,,,,,,,,,,,,,,,,,,,,,,,,,,,,,,,,,,,,,,,,,,,,,119.85946970900113,120.85931474999234,120.85931474999234,121.8591375840042,"[7, 2, 6]",,,,,,,,,,,,,,,,,,,,,,,,,,,,,,,,,,,,,,,,,,,,,,,,,,,,,,,,,,,,,,001,2025-07-26_18h52.25.868,CGTriskyDMtask,2022.2.1,60.248041187566294,
,,,,,8,,,,,,,,,0,7,7,7,,,,,,,,,,,,,,,,,,,,,,,,,,,,,,,,,,,,,,,,,,,,,,,,0,,,,,,,,,,,,,,,,,,121.8591375840042,121.8591375840042,121.8591375840042,-0.0006216249894350767,567890,-0.008888888888888889,-0.4011111111111111,1,0,0,cont_button,124.00905920899822,125.00932037500024,,,,,,,,,,,,,,,,,,,,,,,,,,,,,,,,,,,,,,,,,,,,,,,,,001,2025-07-26_18h52.25.868,CGTriskyDMtask,2022.2.1,60.248041187566294,
,,,,,9,,,,,,,,,0,8,8,8,0,0,0,0,,,,,,,,,,,,,,,,,,,,,,,,,,,,,,,,,,,,,,,,,,,,,,,,,,,,,,,,,125.00932037500024,126.00953966699308,126.00953966699308,127.00920454200241,"[3, 9, 1]",,,,,,,,,,,,,,,,,,,,,,,,,,,,,,,,,,,,,,,,,,,,,,,,,,,,,,,,,,,,,,001,2025-07-26_18h52.25.868,CGTriskyDMtask,2022.2.1,60.248041187566294,
,,,,,9,,,,,,,,,0,8,8,8,1,0,1,0,,,,,,,,,,,,,,,,,,,,,,,,,,,,,,,,,,,,,,,,,,,,,,,,,,,,,,,,,127.00920454200241,127.9930433749978,128.01033512499998,128.9933752920042,"[3, 9, 1]",,,,,,,,,,,,,,,,,,,,,,,,,,,,,,,,,,,,,,,,,,,,,,,,,,,,,,,,,,,,,,001,2025-07-26_18h52.25.868,CGTriskyDMtask,2022.2.1,60.248041187566294,
,,,,,9,,,,,,,,,0,8,8,8,2,0,2,0,,,,,,,,,,,,,,,,,,,,,,,,,,,,,,,,,,,,,,,,,,,,,,,,,,,,,,,,,128.9933752920042,129.99275245900208,129.99275245900208,130.99325141699228,"[3, 9, 1]",,,,,,,,,,,,,,,,,,,,,,,,,,,,,,,,,,,,,,,,,,,,,,,,,,,,,,,,,,,,,,001,2025-07-26_18h52.25.868,CGTriskyDMtask,2022.2.1,60.248041187566294,
,,,,,9,,,,,,,,,0,8,8,8,,,,,,,,,,,,,,,,,,,,,,,,,,,,,,,,,,,,,,,,,,,,,,,,0,,,,,,,,,,,,,,,,,,131.01007124999887,131.01007124999887,131.01007124999887,-0.00033487500331830233,5678,-0.008888888888888889,-0.4011111111111111,1,0,0,cont_button,138.25959745899308,139.25974641699577,,,,,,,,,,,,,,,,,,,,,,,,,,,,,,,,,,,,,,,,,,,,,,,,,001,2025-07-26_18h52.25.868,CGTriskyDMtask,2022.2.1,60.248041187566294,
,,,,,10,,,,,,,,,0,9,9,9,0,0,0,0,,,,,,,,,,,,,,,,,,,,,,,,,,,,,,,,,,,,,,,,,,,,,,,,,,,,,,,,,139.25974641699577,140.25982904199918,140.25982904199918,141.2599522919918,"[9, 3, 1]",,,,,,,,,,,,,,,,,,,,,,,,,,,,,,,,,,,,,,,,,,,,,,,,,,,,,,,,,,,,,,001,2025-07-26_18h52.25.868,CGTriskyDMtask,2022.2.1,60.248041187566294,
,,,,,10,,,,,,,,,0,9,9,9,1,0,1,0,,,,,,,,,,,,,,,,,,,,,,,,,,,,,,,,,,,,,,,,,,,,,,,,,,,,,,,,,141.2599522919918,142.2434362089989,142.2598732089973,143.24305454199202,"[9, 3, 1]",,,,,,,,,,,,,,,,,,,,,,,,,,,,,,,,,,,,,,,,,,,,,,,,,,,,,,,,,,,,,,001,2025-07-26_18h52.25.868,CGTriskyDMtask,2022.2.1,60.248041187566294,
,,,,,10,,,,,,,,,0,9,9,9,2,0,2,0,,,,,,,,,,,,,,,,,,,,,,,,,,,,,,,,,,,,,,,,,,,,,,,,,,,,,,,,,143.24305454199202,144.24397516700265,144.24397516700265,145.2432626249938,"[9, 3, 1]",,,,,,,,,,,,,,,,,,,,,,,,,,,,,,,,,,,,,,,,,,,,,,,,,,,,,,,,,,,,,,001,2025-07-26_18h52.25.868,CGTriskyDMtask,2022.2.1,60.248041187566294,
,,,,,10,,,,,,,,,0,9,9,9,,,,,,,,,,,,,,,,,,,,,,,,,,,,,,,,,,,,,,,,,,,,,,,,0,,,,,,,,,,,,,,,,,,145.2432626249938,145.2432626249938,145.2432626249938,-0.0008093750075204298,5678,-0.008888888888888889,-0.4011111111111111,1,0,0,cont_button,148.41047841700492,149.4105042089941,,,,,,,,,,,,,,,,,,,,,,,,,,,,,,,,,,,,,,,,,,,,,,,,,001,2025-07-26_18h52.25.868,CGTriskyDMtask,2022.2.1,60.248041187566294,
,,,,,11,,,,,,,,,0,10,10,10,0,0,0,0,,,,,,,,,,,,,,,,,,,,,,,,,,,,,,,,,,,,,,,,,,,,,,,,,,,,,,,,,149.4105042089941,150.39461733399366,150.41067383400514,151.41025787500257,"[9, 4, 5]",,,,,,,,,,,,,,,,,,,,,,,,,,,,,,,,,,,,,,,,,,,,,,,,,,,,,,,,,,,,,,001,2025-07-26_18h52.25.868,CGTriskyDMtask,2022.2.1,60.248041187566294,
,,,,,11,,,,,,,,,0,10,10,10,1,0,1,0,,,,,,,,,,,,,,,,,,,,,,,,,,,,,,,,,,,,,,,,,,,,,,,,,,,,,,,,,151.41025787500257,152.41008562500065,152.41008562500065,153.4104610420036,"[9, 4, 5]",,,,,,,,,,,,,,,,,,,,,,,,,,,,,,,,,,,,,,,,,,,,,,,,,,,,,,,,,,,,,,001,2025-07-26_18h52.25.868,CGTriskyDMtask,2022.2.1,60.248041187566294,
,,,,,11,,,,,,,,,0,10,10,10,2,0,2,0,,,,,,,,,,,,,,,,,,,,,,,,,,,,,,,,,,,,,,,,,,,,,,,,,,,,,,,,,153.4104610420036,154.39370333400439,154.41033187499852,155.39361774999998,"[9, 4, 5]",,,,,,,,,,,,,,,,,,,,,,,,,,,,,,,,,,,,,,,,,,,,,,,,,,,,,,,,,,,,,,001,2025-07-26_18h52.25.868,CGTriskyDMtask,2022.2.1,60.248041187566294,
,,,,,11,,,,,,,,,0,10,10,10,,,,,,,,,,,,,,,,,,,,,,,,,,,,,,,,,,,,,,,,,,,,,,,,0,,,,,,,,,,,,,,,,,,155.39361774999998,155.39361774999998,155.39361774999998,-0.0009604590013623238,5678,-0.008888888888888889,-0.4011111111111111,1,0,0,cont_button,156.41040216699184,157.4105195000011,,,,,,,,,,,,,,,,,,,,,,,,,,,,,,,,,,,,,,,,,,,,,,,,,001,2025-07-26_18h52.25.868,CGTriskyDMtask,2022.2.1,60.248041187566294,
,,,,,12,,,,,,,,,0,11,11,11,0,0,0,0,,,,,,,,,,,,,,,,,,,,,,,,,,,,,,,,,,,,,,,,,,,,,,,,,,,,,,,,,157.4105195000011,158.39436983400083,158.41110391699476,159.39384991700354,"[2, 1, 7]",,,,,,,,,,,,,,,,,,,,,,,,,,,,,,,,,,,,,,,,,,,,,,,,,,,,,,,,,,,,,,001,2025-07-26_18h52.25.868,CGTriskyDMtask,2022.2.1,60.248041187566294,
,,,,,12,,,,,,,,,0,11,11,11,1,0,1,0,,,,,,,,,,,,,,,,,,,,,,,,,,,,,,,,,,,,,,,,,,,,,,,,,,,,,,,,,159.39384991700354,160.39455141700455,160.39455141700455,161.39410608400067,"[2, 1, 7]",,,,,,,,,,,,,,,,,,,,,,,,,,,,,,,,,,,,,,,,,,,,,,,,,,,,,,,,,,,,,,001,2025-07-26_18h52.25.868,CGTriskyDMtask,2022.2.1,60.248041187566294,
,,,,,12,,,,,,,,,0,11,11,11,2,0,2,0,,,,,,,,,,,,,,,,,,,,,,,,,,,,,,,,,,,,,,,,,,,,,,,,,,,,,,,,,161.39410608400067,162.4107264589984,162.3939384999976,163.41082679199462,"[2, 1, 7]",,,,,,,,,,,,,,,,,,,,,,,,,,,,,,,,,,,,,,,,,,,,,,,,,,,,,,,,,,,,,,001,2025-07-26_18h52.25.868,CGTriskyDMtask,2022.2.1,60.248041187566294,
,,,,,12,,,,,,,,,0,11,11,11,,,,,,,,,,,,,,,,,,,,,,,,,,,,,,,,,,,,,,,,,,,,,,,,0,,,,,,,,,,,,,,,,,,163.41082679199462,163.41082679199462,163.41082679199462,9.042007150128484e-06,6789,-0.008888888888888889,-0.4011111111111111,1,0,0,cont_button,165.3606202499941,166.36084312500316,,,,,,,,,,,,,,,,,,,,,,,,,,,,,,,,,,,,,,,,,,,,,,,,,001,2025-07-26_18h52.25.868,CGTriskyDMtask,2022.2.1,60.248041187566294,
,,,,,13,,,,,,,,,0,12,12,12,0,0,0,0,,,,,,,,,,,,,,,,,,,,,,,,,,,,,,,,,,,,,,,,,,,,,,,,,,,,,,,,,166.36084312500316,167.34461883400218,167.36089466699923,168.34553054199205,"[5, 8, 9]",,,,,,,,,,,,,,,,,,,,,,,,,,,,,,,,,,,,,,,,,,,,,,,,,,,,,,,,,,,,,,001,2025-07-26_18h52.25.868,CGTriskyDMtask,2022.2.1,60.248041187566294,
,,,,,13,,,,,,,,,0,12,12,12,1,0,1,0,,,,,,,,,,,,,,,,,,,,,,,,,,,,,,,,,,,,,,,,,,,,,,,,,,,,,,,,,168.34553054199205,169.34472045900475,169.34472045900475,170.345050584001,"[5, 8, 9]",,,,,,,,,,,,,,,,,,,,,,,,,,,,,,,,,,,,,,,,,,,,,,,,,,,,,,,,,,,,,,001,2025-07-26_18h52.25.868,CGTriskyDMtask,2022.2.1,60.248041187566294,
,,,,,13,,,,,,,,,0,12,12,12,2,0,2,0,,,,,,,,,,,,,,,,,,,,,,,,,,,,,,,,,,,,,,,,,,,,,,,,,,,,,,,,,170.345050584001,171.34432666699286,171.34432666699286,172.3445353339921,"[5, 8, 9]",,,,,,,,,,,,,,,,,,,,,,,,,,,,,,,,,,,,,,,,,,,,,,,,,,,,,,,,,,,,,,001,2025-07-26_18h52.25.868,CGTriskyDMtask,2022.2.1,60.248041187566294,
,,,,,13,,,,,,,,,0,12,12,12,,,,,,,,,,,,,,,,,,,,,,,,,,,,,,,,,,,,,,,,,,,,,,,,0,,,,,,,,,,,,,,,,,,172.3445353339921,172.3445353339921,172.3445353339921,-0.0005360000068321824,56789,-0.008888888888888889,-0.4011111111111111,1,0,0,cont_button,174.77824179199524,175.7776401250012,,,,,,,,,,,,,,,,,,,,,,,,,,,,,,,,,,,,,,,,,,,,,,,,,001,2025-07-26_18h52.25.868,CGTriskyDMtask,2022.2.1,60.248041187566294,
,,,,,14,,,,,,,,,0,13,13,13,0,0,0,0,,,,,,,,,,,,,,,,,,,,,,,,,,,,,,,,,,,,,,,,,,,,,,,,,,,,,,,,,175.7776401250012,176.76144258400018,176.777681749998,177.76113187499868,"[1, 8, 7]",,,,,,,,,,,,,,,,,,,,,,,,,,,,,,,,,,,,,,,,,,,,,,,,,,,,,,,,,,,,,,001,2025-07-26_18h52.25.868,CGTriskyDMtask,2022.2.1,60.248041187566294,
,,,,,14,,,,,,,,,0,13,13,13,1,0,1,0,,,,,,,,,,,,,,,,,,,,,,,,,,,,,,,,,,,,,,,,,,,,,,,,,,,,,,,,,177.77769412500493,178.76176554200356,178.7790379999933,179.76203524999437,"[1, 8, 7]",,,,,,,,,,,,,,,,,,,,,,,,,,,,,,,,,,,,,,,,,,,,,,,,,,,,,,,,,,,,,,001,2025-07-26_18h52.25.868,CGTriskyDMtask,2022.2.1,60.248041187566294,
,,,,,14,,,,,,,,,0,13,13,13,2,0,2,0,,,,,,,,,,,,,,,,,,,,,,,,,,,,,,,,,,,,,,,,,,,,,,,,,,,,,,,,,179.76203524999437,180.76219920899894,180.76219920899894,181.7618617919943,"[1, 8, 7]",,,,,,,,,,,,,,,,,,,,,,,,,,,,,,,,,,,,,,,,,,,,,,,,,,,,,,,,,,,,,,001,2025-07-26_18h52.25.868,CGTriskyDMtask,2022.2.1,60.248041187566294,
,,,,,14,,,,,,,,,0,13,13,13,,,,,,,,,,,,,,,,,,,,,,,,,,,,,,,,,,,,,,,,,,,,,,,,0,,,,,,,,,,,,,,,,,,181.7618617919943,181.7618617919943,181.7618617919943,-0.0003491669922368601,56789,-0.008888888888888889,-0.4011111111111111,1,0,0,cont_button,188.5449755419977,189.54567666699586,,,,,,,,,,,,,,,,,,,,,,,,,,,,,,,,,,,,,,,,,,,,,,,,,001,2025-07-26_18h52.25.868,CGTriskyDMtask,2022.2.1,60.248041187566294,
,,,,,,,,,,,,,,,,,,,,,,,,,,,,,,,,,,,,,,,,,,,,,,,,,,,,,,,,,,,,,,,,,,,,,,,,,,,,,,,,,,,,,,,,,,,,,,,,189.54567666699586,189.54567666699586,return,4.6159352919930825,,,,,,,,,,,,,,,,,,,,,,,,,,,,,,,,,,,,,,,,,,,,,001,2025-07-26_18h52.25.868,CGTriskyDMtask,2022.2.1,60.248041187566294,
,,,,,,,,,,,,,,,,,,,,,,,,,,,,,,,,,,,,,,,,,,,,,,,,,,,,,,,,,,,,,,,,,,,,,,,,,,,,,,,,,,,,,,,,,,,,,,,,,,,,194.17934141699516,194.17934141699516,return,0.49721624999074265,,,,,,,,,,,,,,,,,,,,,,,,,,,,,,,,,,,,,,,,,001,2025-07-26_18h52.25.868,CGTriskyDMtask,2022.2.1,60.248041187566294,
3,342,24,2,42,,,,,,,,,,,,,,,,,,0,0,0,0,,,,,,,,,,,,,,,,,,,,,,,,,,,,,,,,,,,,,,,,0,,,,,,,,,,,,,,,,,,,,,,,,,,,,,,,,,,,,,,,196.6787679590052,197.67927320899616,197.67927320899616,198.6792567090015,198.6792567090015,198.6792567090015,198.6792567090015,-0.00023137500102166086,5678,-0.008888888888888889,-0.4011111111111111,1,0,0,cont_buttonPractice_2,200.5624056670058,201.56214008400275,,,,,,,,,,,,,,,,,,,,,,,,001,2025-07-26_18h52.25.868,CGTriskyDMtask,2022.2.1,60.248041187566294,
3,937,73,2,37,,,,,,,,,,,,,,,,,,0,1,1,1,,,,,,,,,,,,,,,,,,,,,,,,,,,,,,,,,,,,,,,,0,,,,,,,,,,,,,,,,,,,,,,,,,,,,,,,,,,,,,,,203.56244850000076,204.56259033399692,204.56259033399692,205.5627625000052,205.5627625000052,205.5627625000052,205.5627625000052,-0.0006280829984461889,6789,-0.008888888888888889,-0.4011111111111111,1,0,0,cont_buttonPractice_2,207.32958624999446,208.32980708399555,,,,,,,,,,,,,,,,,,,,,,,,001,2025-07-26_18h52.25.868,CGTriskyDMtask,2022.2.1,60.248041187566294,
,,,,,,,,,,,,,,,,,,,,,,,,,,,,,,,,,,,,,,,,,,,,,,,,,,,,,,,,,,,,,,,,,,,,,,,,,,,,,,,,,,,,,,,,,,,,,,,,,,,,,,,,,,,,,,,,,,,,,,,,,208.32980708399555,208.32980708399555,return,2.1989900000044145,,,,,,,,,,,,,,,,,,,,001,2025-07-26_18h52.25.868,CGTriskyDMtask,2022.2.1,60.248041187566294,
,,,,,1,,,,,,,,,,,,,,,,,,,,,,,,,0,0,0,0,0,0,0,0,,,,,,,,,,,,,,,,,,,,,,,,,,,,,,,,,,,,,,,,,,,,,"[2, 8]",,,,,,,,,,,,,,,,,,,,,,,,,,,,,,,,,,,,,,,,,,,210.5481268750009,211.5459556249989,211.56324012500409,212.54643933399348,,,,,,,,,,,,,,,,001,2025-07-26_18h52.25.868,CGTriskyDMtask,2022.2.1,60.248041187566294,
,,,,,1,,,,,,,,,,,,,,,,,,,,,,,,,0,0,0,0,1,0,1,0,,,,,,,,,,,,,,,,,,,,,,,,,,,,,,,,,,,,,,,,,,,,,"[2, 8]",,,,,,,,,,,,,,,,,,,,,,,,,,,,,,,,,,,,,,,,,,,212.54643933399348,213.546038667002,213.546038667002,214.54555566700583,,,,,,,,,,,,,,,,001,2025-07-26_18h52.25.868,CGTriskyDMtask,2022.2.1,60.248041187566294,
,,,,,1,,,,,,,,,,,,,,,,,,,,,,,,,0,0,0,0,,,,,,,,,,,,,,,,,,,,,,,,,,,,,,,,0,,,,,,,,,,,,,,,,,,,,,,,,,,,,,,,,,,,,,,,,,,,,,,,,,,,,,,,,,,,,,,,,214.54555566700583,214.54555566700583,214.54555566700583,0.0073158750019501895,56789,-0.008888888888888889,-0.4011111111111111,1,0,0,cont_buttonBS,215.99617258399667,216.99635800000397,,,001,2025-07-26_18h52.25.868,CGTriskyDMtask,2022.2.1,60.248041187566294,
,,,,,2,,,,,,,,,,,,,,,,,,,,,,,,,0,1,1,1,0,0,0,0,,,,,,,,,,,,,,,,,,,,,,,,,,,,,,,,,,,,,,,,,,,,,"[6, 5]",,,,,,,,,,,,,,,,,,,,,,,,,,,,,,,,,,,,,,,,,,,216.99635800000397,217.97960004200286,217.99636812499375,218.97964591700293,,,,,,,,,,,,,,,,001,2025-07-26_18h52.25.868,CGTriskyDMtask,2022.2.1,60.248041187566294,
,,,,,2,,,,,,,,,,,,,,,,,,,,,,,,,0,1,1,1,1,0,1,0,,,,,,,,,,,,,,,,,,,,,,,,,,,,,,,,,,,,,,,,,,,,,"[6, 5]",,,,,,,,,,,,,,,,,,,,,,,,,,,,,,,,,,,,,,,,,,,218.97964591700293,219.97980683400237,219.97980683400237,220.97971645899815,,,,,,,,,,,,,,,,001,2025-07-26_18h52.25.868,CGTriskyDMtask,2022.2.1,60.248041187566294,
,,,,,2,,,,,,,,,,,,,,,,,,,,,,,,,0,1,1,1,,,,,,,,,,,,,,,,,,,,,,,,,,,,,,,,0,,,,,,,,,,,,,,,,,,,,,,,,,,,,,,,,,,,,,,,,,,,,,,,,,,,,,,,,,,,,,,,,220.97971645899815,220.97971645899815,220.97971645899815,-0.0007306659972527996,678,-0.008888888888888889,-0.4011111111111111,1,0,0,cont_buttonBS,222.57969387499907,223.58011479199922,,,001,2025-07-26_18h52.25.868,CGTriskyDMtask,2022.2.1,60.248041187566294,
,,,,,3,,,,,,,,,,,,,,,,,,,,,,,,,0,2,2,2,0,0,0,0,,,,,,,,,,,,,,,,,,,,,,,,,,,,,,,,,,,,,,,,,,,,,"[5, 1]",,,,,,,,,,,,,,,,,,,,,,,,,,,,,,,,,,,,,,,,,,,223.58011479199922,224.5632262500003,224.57974308400298,225.5632137920038,,,,,,,,,,,,,,,,001,2025-07-26_18h52.25.868,CGTriskyDMtask,2022.2.1,60.248041187566294,
,,,,,3,,,,,,,,,,,,,,,,,,,,,,,,,0,2,2,2,1,0,1,0,,,,,,,,,,,,,,,,,,,,,,,,,,,,,,,,,,,,,,,,,,,,,"[5, 1]",,,,,,,,,,,,,,,,,,,,,,,,,,,,,,,,,,,,,,,,,,,225.5632137920038,226.56346666699392,226.56346666699392,227.56368150000344,,,,,,,,,,,,,,,,001,2025-07-26_18h52.25.868,CGTriskyDMtask,2022.2.1,60.248041187566294,
,,,,,3,,,,,,,,,,,,,,,,,,,,,,,,,0,2,2,2,,,,,,,,,,,,,,,,,,,,,,,,,,,,,,,,0,,,,,,,,,,,,,,,,,,,,,,,,,,,,,,,,,,,,,,,,,,,,,,,,,,,,,,,,,,,,,,,,227.56368150000344,227.56368150000344,227.56368150000344,-0.0004088329878868535,67890,-0.008888888888888889,-0.4011111111111111,1,0,0,cont_buttonBS,228.7466318749939,229.74721033399692,,,001,2025-07-26_18h52.25.868,CGTriskyDMtask,2022.2.1,60.248041187566294,
,,,,,4,,,,,,,,,,,,,,,,,,,,,,,,,0,3,3,3,0,0,0,0,,,,,,,,,,,,,,,,,,,,,,,,,,,,,,,,,,,,,,,,,,,,,"[8, 3]",,,,,,,,,,,,,,,,,,,,,,,,,,,,,,,,,,,,,,,,,,,229.74721033399692,230.73007720899477,230.74700287499581,231.73037879199546,,,,,,,,,,,,,,,,001,2025-07-26_18h52.25.868,CGTriskyDMtask,2022.2.1,60.248041187566294,
,,,,,4,,,,,,,,,,,,,,,,,,,,,,,,,0,3,3,3,1,0,1,0,,,,,,,,,,,,,,,,,,,,,,,,,,,,,,,,,,,,,,,,,,,,,"[8, 3]",,,,,,,,,,,,,,,,,,,,,,,,,,,,,,,,,,,,,,,,,,,231.73037879199546,232.73029024999414,232.73029024999414,233.73001137499523,,,,,,,,,,,,,,,,001,2025-07-26_18h52.25.868,CGTriskyDMtask,2022.2.1,60.248041187566294,
,,,,,4,,,,,,,,,,,,,,,,,,,,,,,,,0,3,3,3,,,,,,,,,,,,,,,,,,,,,,,,,,,,,,,,0,,,,,,,,,,,,,,,,,,,,,,,,,,,,,,,,,,,,,,,,,,,,,,,,,,,,,,,,,,,,,,,,233.73001137499523,233.73001137499523,233.73001137499523,-0.0007861670019337907,56789,-0.008888888888888889,-0.4011111111111111,1,0,0,cont_buttonBS,235.31389533399488,236.31483808399935,,,001,2025-07-26_18h52.25.868,CGTriskyDMtask,2022.2.1,60.248041187566294,
,,,,,5,,,,,,,,,,,,,,,,,,,,,,,,,0,4,4,4,0,0,0,0,,,,,,,,,,,,,,,,,,,,,,,,,,,,,,,,,,,,,,,,,,,,,"[5, 9]",,,,,,,,,,,,,,,,,,,,,,,,,,,,,,,,,,,,,,,,,,,236.31483808399935,237.3137002089934,237.33038641700114,238.31380449999415,,,,,,,,,,,,,,,,001,2025-07-26_18h52.25.868,CGTriskyDMtask,2022.2.1,60.248041187566294,
,,,,,5,,,,,,,,,,,,,,,,,,,,,,,,,0,4,4,4,1,0,1,0,,,,,,,,,,,,,,,,,,,,,,,,,,,,,,,,,,,,,,,,,,,,,"[5, 9]",,,,,,,,,,,,,,,,,,,,,,,,,,,,,,,,,,,,,,,,,,,238.31380449999415,239.3140482089948,239.3140482089948,240.314331208996,,,,,,,,,,,,,,,,001,2025-07-26_18h52.25.868,CGTriskyDMtask,2022.2.1,60.248041187566294,
,,,,,5,,,,,,,,,,,,,,,,,,,,,,,,,0,4,4,4,,,,,,,,,,,,,,,,,,,,,,,,,,,,,,,,0,,,,,,,,,,,,,,,,,,,,,,,,,,,,,,,,,,,,,,,,,,,,,,,,,,,,,,,,,,,,,,,,240.314331208996,240.314331208996,240.314331208996,-0.00017620899598114192,5678,-0.005555555555555556,-0.4033333333333333,1,0,0,cont_buttonBS,241.73063695899327,242.73057629200048,,,001,2025-07-26_18h52.25.868,CGTriskyDMtask,2022.2.1,60.248041187566294,
,,,,,6,,,,,,,,,,,,,,,,,,,,,,,,,0,5,5,5,0,0,0,0,,,,,,,,,,,,,,,,,,,,,,,,,,,,,,,,,,,,,,,,,,,,,"[3, 8]",,,,,,,,,,,,,,,,,,,,,,,,,,,,,,,,,,,,,,,,,,,242.73057629200048,243.7148669169983,243.73140150000108,244.71402920900437,,,,,,,,,,,,,,,,001,2025-07-26_18h52.25.868,CGTriskyDMtask,2022.2.1,60.248041187566294,
,,,,,6,,,,,,,,,,,,,,,,,,,,,,,,,0,5,5,5,1,0,1,0,,,,,,,,,,,,,,,,,,,,,,,,,,,,,,,,,,,,,,,,,,,,,"[3, 8]",,,,,,,,,,,,,,,,,,,,,,,,,,,,,,,,,,,,,,,,,,,244.71402920900437,245.71418220900523,245.71418220900523,246.71385341699352,,,,,,,,,,,,,,,,001,2025-07-26_18h52.25.868,CGTriskyDMtask,2022.2.1,60.248041187566294,
,,,,,6,,,,,,,,,,,,,,,,,,,,,,,,,0,5,5,5,,,,,,,,,,,,,,,,,,,,,,,,,,,,,,,,0,,,,,,,,,,,,,,,,,,,,,,,,,,,,,,,,,,,,,,,,,,,,,,,,,,,,,,,,,,,,,,,,246.71385341699352,246.71385341699352,246.71385341699352,0.016009957995265722,56789,-0.005555555555555556,-0.4033333333333333,1,0,0,cont_buttonBS,248.09759508399293,249.09745087499323,,,001,2025-07-26_18h52.25.868,CGTriskyDMtask,2022.2.1,60.248041187566294,
,,,,,7,,,,,,,,,,,,,,,,,,,,,,,,,0,6,6,6,0,0,0,0,,,,,,,,,,,,,,,,,,,,,,,,,,,,,,,,,,,,,,,,,,,,,"[7, 6]",,,,,,,,,,,,,,,,,,,,,,,,,,,,,,,,,,,,,,,,,,,249.09745087499323,250.09754037500534,250.09754037500534,251.09767237499182,,,,,,,,,,,,,,,,001,2025-07-26_18h52.25.868,CGTriskyDMtask,2022.2.1,60.248041187566294,
,,,,,7,,,,,,,,,,,,,,,,,,,,,,,,,0,6,6,6,1,0,1,0,,,,,,,,,,,,,,,,,,,,,,,,,,,,,,,,,,,,,,,,,,,,,"[7, 6]",,,,,,,,,,,,,,,,,,,,,,,,,,,,,,,,,,,,,,,,,,,251.09767237499182,252.08186308399308,252.09813558400492,253.08163958399382,,,,,,,,,,,,,,,,001,2025-07-26_18h52.25.868,CGTriskyDMtask,2022.2.1,60.248041187566294,
,,,,,7,,,,,,,,,,,,,,,,,,,,,,,,,0,6,6,6,,,,,,,,,,,,,,,,,,,,,,,,,,,,,,,,0,,,,,,,,,,,,,,,,,,,,,,,,,,,,,,,,,,,,,,,,,,,,,,,,,,,,,,,,,,,,,,,,253.08163958399382,253.08163958399382,253.08163958399382,5.420006345957518e-07,56789,-0.005555555555555556,-0.4033333333333333,1,0,0,cont_buttonBS,254.39854841699707,255.39775570899656,,,001,2025-07-26_18h52.25.868,CGTriskyDMtask,2022.2.1,60.248041187566294,
,,,,,8,,,,,,,,,,,,,,,,,,,,,,,,,0,7,7,7,0,0,0,0,,,,,,,,,,,,,,,,,,,,,,,,,,,,,,,,,,,,,,,,,,,,,"[5, 9]",,,,,,,,,,,,,,,,,,,,,,,,,,,,,,,,,,,,,,,,,,,255.39775570899656,256.3978267920029,256.3978267920029,257.3978586669982,,,,,,,,,,,,,,,,001,2025-07-26_18h52.25.868,CGTriskyDMtask,2022.2.1,60.248041187566294,
,,,,,8,,,,,,,,,,,,,,,,,,,,,,,,,0,7,7,7,1,0,1,0,,,,,,,,,,,,,,,,,,,,,,,,,,,,,,,,,,,,,,,,,,,,,"[5, 9]",,,,,,,,,,,,,,,,,,,,,,,,,,,,,,,,,,,,,,,,,,,257.3978586669982,258.3819142499997,258.39861433400074,259.3811247919948,,,,,,,,,,,,,,,,001,2025-07-26_18h52.25.868,CGTriskyDMtask,2022.2.1,60.248041187566294,
,,,,,8,,,,,,,,,,,,,,,,,,,,,,,,,0,7,7,7,,,,,,,,,,,,,,,,,,,,,,,,,,,,,,,,0,,,,,,,,,,,,,,,,,,,,,,,,,,,,,,,,,,,,,,,,,,,,,,,,,,,,,,,,,,,,,,,,259.3811247919948,259.3811247919948,259.3811247919948,0.015871957992203534,56789,-0.005555555555555556,-0.4033333333333333,1,0,0,cont_buttonBS,260.73192754200136,261.73189991699473,,,001,2025-07-26_18h52.25.868,CGTriskyDMtask,2022.2.1,60.248041187566294,
,,,,,9,,,,,,,,,,,,,,,,,,,,,,,,,0,8,8,8,0,0,0,0,,,,,,,,,,,,,,,,,,,,,,,,,,,,,,,,,,,,,,,,,,,,,"[5, 6]",,,,,,,,,,,,,,,,,,,,,,,,,,,,,,,,,,,,,,,,,,,261.73189991699473,262.714968625005,262.7316879169957,263.71552758400503,,,,,,,,,,,,,,,,001,2025-07-26_18h52.25.868,CGTriskyDMtask,2022.2.1,60.248041187566294,
,,,,,9,,,,,,,,,,,,,,,,,,,,,,,,,0,8,8,8,1,0,1,0,,,,,,,,,,,,,,,,,,,,,,,,,,,,,,,,,,,,,,,,,,,,,"[5, 6]",,,,,,,,,,,,,,,,,,,,,,,,,,,,,,,,,,,,,,,,,,,263.71552758400503,264.7157358340046,264.7157358340046,265.7147862089914,,,,,,,,,,,,,,,,001,2025-07-26_18h52.25.868,CGTriskyDMtask,2022.2.1,60.248041187566294,
,,,,,9,,,,,,,,,,,,,,,,,,,,,,,,,0,8,8,8,,,,,,,,,,,,,,,,,,,,,,,,,,,,,,,,0,,,,,,,,,,,,,,,,,,,,,,,,,,,,,,,,,,,,,,,,,,,,,,,,,,,,,,,,,,,,,,,,265.73179462499684,265.73179462499684,265.73179462499684,0.015371334011433646,5678,-0.005555555555555556,-0.4033333333333333,1,0,0,cont_buttonBS,267.34815329199773,268.34842579199176,,,001,2025-07-26_18h52.25.868,CGTriskyDMtask,2022.2.1,60.248041187566294,
,,,,,10,,,,,,,,,,,,,,,,,,,,,,,,,0,9,9,9,0,0,0,0,,,,,,,,,,,,,,,,,,,,,,,,,,,,,,,,,,,,,,,,,,,,,"[2, 1]",,,,,,,,,,,,,,,,,,,,,,,,,,,,,,,,,,,,,,,,,,,268.34842579199176,269.3483755000052,269.3483755000052,270.34833579200495,,,,,,,,,,,,,,,,001,2025-07-26_18h52.25.868,CGTriskyDMtask,2022.2.1,60.248041187566294,
,,,,,10,,,,,,,,,,,,,,,,,,,,,,,,,0,9,9,9,1,0,1,0,,,,,,,,,,,,,,,,,,,,,,,,,,,,,,,,,,,,,,,,,,,,,"[2, 1]",,,,,,,,,,,,,,,,,,,,,,,,,,,,,,,,,,,,,,,,,,,270.34833579200495,271.33185991700157,271.34849454200594,272.33190945899696,,,,,,,,,,,,,,,,001,2025-07-26_18h52.25.868,CGTriskyDMtask,2022.2.1,60.248041187566294,
,,,,,10,,,,,,,,,,,,,,,,,,,,,,,,,0,9,9,9,,,,,,,,,,,,,,,,,,,,,,,,,,,,,,,,0,,,,,,,,,,,,,,,,,,,,,,,,,,,,,,,,,,,,,,,,,,,,,,,,,,,,,,,,,,,,,,,,272.34858862499823,272.34858862499823,272.34858862499823,-0.0007421670015901327,56789,-0.005555555555555556,-0.4033333333333333,1,0,0,cont_buttonBS,273.6657931249938,274.66524175000086,,,001,2025-07-26_18h52.25.868,CGTriskyDMtask,2022.2.1,60.248041187566294,
,,,,,11,,,,,,,,,,,,,,,,,,,,,,,,,0,10,10,10,0,0,0,0,,,,,,,,,,,,,,,,,,,,,,,,,,,,,,,,,,,,,,,,,,,,,"[8, 3]",,,,,,,,,,,,,,,,,,,,,,,,,,,,,,,,,,,,,,,,,,,274.66524175000086,275.6489295420033,275.66524170899356,276.6495142089989,,,,,,,,,,,,,,,,001,2025-07-26_18h52.25.868,CGTriskyDMtask,2022.2.1,60.248041187566294,
,,,,,11,,,,,,,,,,,,,,,,,,,,,,,,,0,10,10,10,1,0,1,0,,,,,,,,,,,,,,,,,,,,,,,,,,,,,,,,,,,,,,,,,,,,,"[8, 3]",,,,,,,,,,,,,,,,,,,,,,,,,,,,,,,,,,,,,,,,,,,276.6495142089989,277.64874816700467,277.64874816700467,278.64878970899736,,,,,,,,,,,,,,,,001,2025-07-26_18h52.25.868,CGTriskyDMtask,2022.2.1,60.248041187566294,
,,,,,11,,,,,,,,,,,,,,,,,,,,,,,,,0,10,10,10,,,,,,,,,,,,,,,,,,,,,,,,,,,,,,,,0,,,,,,,,,,,,,,,,,,,,,,,,,,,,,,,,,,,,,,,,,,,,,,,,,,,,,,,,,,,,,,,,278.64878970899736,278.64878970899736,278.64878970899736,-0.0008002499962458387,56789,-0.005555555555555556,-0.4033333333333333,1,0,0,cont_buttonBS,280.4157567920047,281.41590045900375,,,001,2025-07-26_18h52.25.868,CGTriskyDMtask,2022.2.1,60.248041187566294,
,,,,,12,,,,,,,,,,,,,,,,,,,,,,,,,0,11,11,11,0,0,0,0,,,,,,,,,,,,,,,,,,,,,,,,,,,,,,,,,,,,,,,,,,,,,"[5, 6]",,,,,,,,,,,,,,,,,,,,,,,,,,,,,,,,,,,,,,,,,,,281.41590045900375,282.3996170839964,282.4159799170011,283.39888754200365,,,,,,,,,,,,,,,,001,2025-07-26_18h52.25.868,CGTriskyDMtask,2022.2.1,60.248041187566294,
,,,,,12,,,,,,,,,,,,,,,,,,,,,,,,,0,11,11,11,1,0,1,0,,,,,,,,,,,,,,,,,,,,,,,,,,,,,,,,,,,,,,,,,,,,,"[5, 6]",,,,,,,,,,,,,,,,,,,,,,,,,,,,,,,,,,,,,,,,,,,283.4154535839916,284.39872941699286,284.4165343749919,285.39899600000354,,,,,,,,,,,,,,,,001,2025-07-26_18h52.25.868,CGTriskyDMtask,2022.2.1,60.248041187566294,
,,,,,12,,,,,,,,,,,,,,,,,,,,,,,,,0,11,11,11,,,,,,,,,,,,,,,,,,,,,,,,,,,,,,,,0,,,,,,,,,,,,,,,,,,,,,,,,,,,,,,,,,,,,,,,,,,,,,,,,,,,,,,,,,,,,,,,,285.4158271250053,285.4158271250053,285.4158271250053,0.015737790992716327,56789,-0.005555555555555556,-0.4033333333333333,1,0,0,cont_buttonBS,286.582448000001,287.5826300839981,,,001,2025-07-26_18h52.25.868,CGTriskyDMtask,2022.2.1,60.248041187566294,
,,,,,13,,,,,,,,,,,,,,,,,,,,,,,,,0,12,12,12,0,0,0,0,,,,,,,,,,,,,,,,,,,,,,,,,,,,,,,,,,,,,,,,,,,,,"[6, 7]",,,,,,,,,,,,,,,,,,,,,,,,,,,,,,,,,,,,,,,,,,,287.5826300839981,288.5825083749951,288.5825083749951,289.5826449169981,,,,,,,,,,,,,,,,001,2025-07-26_18h52.25.868,CGTriskyDMtask,2022.2.1,60.248041187566294,
,,,,,13,,,,,,,,,,,,,,,,,,,,,,,,,0,12,12,12,1,0,1,0,,,,,,,,,,,,,,,,,,,,,,,,,,,,,,,,,,,,,,,,,,,,,"[6, 7]",,,,,,,,,,,,,,,,,,,,,,,,,,,,,,,,,,,,,,,,,,,289.5826449169981,290.56702837499324,290.5838637090055,291.56615608399443,,,,,,,,,,,,,,,,001,2025-07-26_18h52.25.868,CGTriskyDMtask,2022.2.1,60.248041187566294,
,,,,,13,,,,,,,,,,,,,,,,,,,,,,,,,0,12,12,12,,,,,,,,,,,,,,,,,,,,,,,,,,,,,,,,0,,,,,,,,,,,,,,,,,,,,,,,,,,,,,,,,,,,,,,,,,,,,,,,,,,,,,,,,,,,,,,,,291.56615608399443,291.56615608399443,291.56615608399443,-0.0005490420007845387,56789,-0.005555555555555556,-0.4033333333333333,1,0,0,cont_buttonBS,292.7824228340032,293.78313504200196,,,001,2025-07-26_18h52.25.868,CGTriskyDMtask,2022.2.1,60.248041187566294,
,,,,,14,,,,,,,,,,,,,,,,,,,,,,,,,0,13,13,13,0,0,0,0,,,,,,,,,,,,,,,,,,,,,,,,,,,,,,,,,,,,,,,,,,,,,"[1, 8]",,,,,,,,,,,,,,,,,,,,,,,,,,,,,,,,,,,,,,,,,,,293.78313504200196,294.7660577499919,294.7828640420048,295.7661494589993,,,,,,,,,,,,,,,,001,2025-07-26_18h52.25.868,CGTriskyDMtask,2022.2.1,60.248041187566294,
,,,,,14,,,,,,,,,,,,,,,,,,,,,,,,,0,13,13,13,1,0,1,0,,,,,,,,,,,,,,,,,,,,,,,,,,,,,,,,,,,,,,,,,,,,,"[1, 8]",,,,,,,,,,,,,,,,,,,,,,,,,,,,,,,,,,,,,,,,,,,295.7661494589993,296.7833541250002,296.7659305839916,297.78293854200456,,,,,,,,,,,,,,,,001,2025-07-26_18h52.25.868,CGTriskyDMtask,2022.2.1,60.248041187566294,
,,,,,14,,,,,,,,,,,,,,,,,,,,,,,,,0,13,13,13,,,,,,,,,,,,,,,,,,,,,,,,,,,,,,,,0,,,,,,,,,,,,,,,,,,,,,,,,,,,,,,,,,,,,,,,,,,,,,,,,,,,,,,,,,,,,,,,,297.78293854200456,297.78293854200456,297.78293854200456,3.270900924690068e-05,56789,-0.005555555555555556,-0.4033333333333333,1,0,0,cont_buttonBS,299.9328592919919,300.93296308399295,,,001,2025-07-26_18h52.25.868,CGTriskyDMtask,2022.2.1,60.248041187566294,
,,,,,,,,,,,,,,,,,,,,,,,,,,,,,,,,,,,,,,,,,,,,,,,,,,,,,,,,,,,,,,,,,,,,,,,,,,,,,,,,,,,,,,,,,,,,,,,,,,,,,,,,,,,,,,,,,,,,,,,,,,,,,,,,,,,,,,,,,,,,,,300.93296308399295,302.9330309999932,,,,,,
