digitSpan,digits,digitsReverse,trialNumber,trialFSPractice.thisRepN,trialFSPractice.thisTrialN,trialFSPractice.thisN,trialFSPractice.thisIndex,DigitLoopPractice.thisRepN,DigitLoopPractice.thisTrialN,DigitLoopPractice.thisN,DigitLoopPractice.thisIndex,trialsFS.thisRepN,trialsFS.thisTrialN,trialsFS.thisN,trialsFS.thisIndex,digitLoop.thisRepN,digitLoop.thisTrialN,digitLoop.thisN,digitLoop.thisIndex,trialsPracticeBS.thisRepN,trialsPracticeBS.thisTrialN,trialsPracticeBS.thisN,trialsPracticeBS.thisIndex,digitLoopPracticeBS.thisRepN,digitLoopPracticeBS.thisTrialN,digitLoopPracticeBS.thisN,digitLoopPracticeBS.thisIndex,thisRow.t,notes,GenInsText.started,movealong.started,movealong.keys,movealong.rt,Reminder1.started,movealong2.started,movealong2.keys,movealong2.rt,Reminder2.started,movealong3.started,movealong3.keys,movealong3.rt,FSGenInsText.started,startPractice.started,startPractice.keys,startPractice.rt,fixation_2.started,pres_text_practice.started,fixation_2.stopped,pres_text_practice.stopped,recall_txtPractice.started,textboxPractice.started,cont_buttonPractice.started,mousePractice.started,textboxPractice.text,correct,mousePractice.x,mousePractice.y,mousePractice.leftButton,mousePractice.midButton,mousePractice.rightButton,mousePractice.clicked_name,feedbac_textPractice.started,feedbac_textPractice.stopped,praccomplete.started,startFSreal.started,startFSreal.keys,startFSreal.rt,fixation.started,presentation_text.started,fixation.stopped,presentation_text.stopped,digitsForTrial,recall_txt.started,textbox.started,cont_button.started,mouse_3.started,textbox.text,mouse_3.x,mouse_3.y,mouse_3.leftButton,mouse_3.midButton,mouse_3.rightButton,mouse_3.clicked_name,feedback_text.started,feedback_text.stopped,roundTransition.started,moveToBS.started,moveToBS.keys,moveToBS.rt,BSGenInsText.started,startBSprac.started,startBSprac.keys,startBSprac.rt,fixation_3.started,pres_text_practice_2.started,fixation_3.stopped,pres_text_practice_2.stopped,recall_txtPractice_2.started,textboxPractice_2.started,cont_buttonPractice_2.started,mousePractice_2.started,textboxPractice_2.text,participant,date,expName,psychopyVersion,frameRate,
,,,,,,,,,,,,,,,,,,,,,,,,,,,,,,17.07630779199826,17.07630779199826,return,0.6831362079974497,,,,,,,,,,,,,,,,,,,,,,,,,,,,,,,,,,,,,,,,,,,,,,,,,,,,,,,,,,,,,,,,,,,,,,001,2025-07-25_19h02.48.063,CGTriskyDMtask,2022.2.1,59.98257518061203,
,,,,,,,,,,,,,,,,,,,,,,,,,,,,,,,,,,17.800566459001857,17.800566459001857,return,0.107109708013013,,,,,,,,,,,,,,,,,,,,,,,,,,,,,,,,,,,,,,,,,,,,,,,,,,,,,,,,,,,,,,,,,,001,2025-07-25_19h02.48.063,CGTriskyDMtask,2022.2.1,59.98257518061203,
,,,,,,,,,,,,,,,,,,,,,,,,,,,,,,,,,,,,,,17.925990917006857,17.925990917006857,return,0.1358564170077443,,,,,,,,,,,,,,,,,,,,,,,,,,,,,,,,,,,,,,,,,,,,,,,,,,,,,,,,,,,,,,001,2025-07-25_19h02.48.063,CGTriskyDMtask,2022.2.1,59.98257518061203,
,,,,,,,,,,,,,,,,,,,,,,,,,,,,,,,,,,,,,,,,,,18.092400499997893,18.092400499997893,return,0.10318045801250264,,,,,,,,,,,,,,,,,,,,,,,,,,,,,,,,,,,,,,,,,,,,,,,,,,,,,,,,,,001,2025-07-25_19h02.48.063,CGTriskyDMtask,2022.2.1,59.98257518061203,
3,342,243,,0,0,0,0,,,,,,,,,,,,,,,,,,,,,,,,,,,,,,,,,,,,,,,22.209378041996388,23.20998079200217,23.20998079200217,24.20917833400017,24.20917833400017,24.20917833400017,24.20917833400017,0.015433958993526176,342,1,-0.035555555555555556,-0.39111111111111113,1,0,0,cont_buttonPractice,33.77650979200553,34.77738275000593,,,,,,,,,,,,,,,,,,,,,,,,,,,,,,,,,,,,,,,,001,2025-07-25_19h02.48.063,CGTriskyDMtask,2022.2.1,59.98257518061203,
3,937,739,,0,1,1,1,,,,,,,,,,,,,,,,,,,,,,,,,,,,,,,,,,,,,,,38.77670937500079,39.77679045900004,39.77679045900004,40.77676070900634,40.77676070900634,40.77676070900634,40.77676070900634,0.013401874995906837,937,1,-0.0022222222222222222,-0.3988888888888889,1,0,0,cont_buttonPractice,44.526786625006935,45.526681083996664,,,,,,,,,,,,,,,,,,,,,,,,,,,,,,,,,,,,,,,,001,2025-07-25_19h02.48.063,CGTriskyDMtask,2022.2.1,59.98257518061203,
,,,,,,,,,,,,,,,,,,,,,,,,,,,,,,,,,,,,,,,,,,,,,,,,,,,,,,,,,,,,,,,,45.526681083996664,45.526681083996664,return,47.37764049900579,,,,,,,,,,,,,,,,,,,,,,,,,,,,,,,,,,,,001,2025-07-25_19h02.48.063,CGTriskyDMtask,2022.2.1,59.98257518061203,
,,,1,,,,,,,,,0,0,0,0,0,0,0,0,,,,,,,,,,,,,,,,,,,,,,,,,,,,,,,,,,,,,,,,,,,,,,,,,92.93312266700377,93.92880879199947,93.9457032920036,94.928962667007,"[8, 4, 6]",,,,,,,,,,,,,,,,,,,,,,,,,,,,,,,001,2025-07-25_19h02.48.063,CGTriskyDMtask,2022.2.1,59.98257518061203,
,,,1,,,,,,,,,0,0,0,0,1,0,1,0,,,,,,,,,,,,,,,,,,,,,,,,,,,,,,,,,,,,,,,,,,,,,,,,,94.928962667007,95.92980266700033,95.92980266700033,96.92883725000138,"[8, 4, 6]",,,,,,,,,,,,,,,,,,,,,,,,,,,,,,,001,2025-07-25_19h02.48.063,CGTriskyDMtask,2022.2.1,59.98257518061203,
,,,1,,,,,,,,,0,0,0,0,2,0,2,0,,,,,,,,,,,,,,,,,,,,,,,,,,,,,,,,,,,,,,,,,,,,,,,,,96.92883725000138,97.92940583400195,97.92940583400195,98.92890858399915,"[8, 4, 6]",,,,,,,,,,,,,,,,,,,,,,,,,,,,,,,001,2025-07-25_19h02.48.063,CGTriskyDMtask,2022.2.1,59.98257518061203,
,,,1,,,,,,,,,0,0,0,0,,,,,,,,,,,,,,,,,,,,,,,,,,,,,,,,,,,,,,,,0,,,,,,,,,,,,,,,,,,98.92890858399915,98.92890858399915,98.92890858399915,0.007501916988985613,435,0.015555555555555555,-0.3711111111111111,1,0,0,cont_button,103.71248470900173,104.71257800000603,,,,,,,,,,,,,,,,,,001,2025-07-25_19h02.48.063,CGTriskyDMtask,2022.2.1,59.98257518061203,
,,,2,,,,,,,,,0,1,1,1,0,0,0,0,,,,,,,,,,,,,,,,,,,,,,,,,,,,,,,,,,,,,,,,,,,,,,,,,104.71257800000603,105.69602658400254,105.71268716700433,106.69740129199636,"[9, 1, 3]",,,,,,,,,,,,,,,,,,,,,,,,,,,,,,,001,2025-07-25_19h02.48.063,CGTriskyDMtask,2022.2.1,59.98257518061203,
,,,2,,,,,,,,,0,1,1,1,1,0,1,0,,,,,,,,,,,,,,,,,,,,,,,,,,,,,,,,,,,,,,,,,,,,,,,,,106.69740129199636,107.69612995900388,107.7128605839971,108.69623616700119,"[9, 1, 3]",,,,,,,,,,,,,,,,,,,,,,,,,,,,,,,001,2025-07-25_19h02.48.063,CGTriskyDMtask,2022.2.1,59.98257518061203,
,,,2,,,,,,,,,0,1,1,1,2,0,2,0,,,,,,,,,,,,,,,,,,,,,,,,,,,,,,,,,,,,,,,,,,,,,,,,,108.69623616700119,109.69660712500627,109.69660712500627,110.69593104200612,"[9, 1, 3]",,,,,,,,,,,,,,,,,,,,,,,,,,,,,,,001,2025-07-25_19h02.48.063,CGTriskyDMtask,2022.2.1,59.98257518061203,
,,,2,,,,,,,,,0,1,1,1,,,,,,,,,,,,,,,,,,,,,,,,,,,,,,,,,,,,,,,,0,,,,,,,,,,,,,,,,,,110.69593104200612,110.69593104200612,110.69593104200612,-0.0009137919987551868,67890,-0.06222222222222222,-0.4033333333333333,1,0,0,cont_button,113.04657337500248,114.04625349999696,,,,,,,,,,,,,,,,,,001,2025-07-25_19h02.48.063,CGTriskyDMtask,2022.2.1,59.98257518061203,
,,,3,,,,,,,,,0,2,2,2,0,0,0,0,,,,,,,,,,,,,,,,,,,,,,,,,,,,,,,,,,,,,,,,,,,,,,,,,114.04625349999696,115.03054729200085,115.04707829200197,116.02981791700586,"[8, 1, 2]",,,,,,,,,,,,,,,,,,,,,,,,,,,,,,,001,2025-07-25_19h02.48.063,CGTriskyDMtask,2022.2.1,59.98257518061203,
,,,3,,,,,,,,,0,2,2,2,1,0,1,0,,,,,,,,,,,,,,,,,,,,,,,,,,,,,,,,,,,,,,,,,,,,,,,,,116.02981791700586,117.04630295900279,117.03006558399647,118.04681887499464,"[8, 1, 2]",,,,,,,,,,,,,,,,,,,,,,,,,,,,,,,001,2025-07-25_19h02.48.063,CGTriskyDMtask,2022.2.1,59.98257518061203,
,,,3,,,,,,,,,0,2,2,2,2,0,2,0,,,,,,,,,,,,,,,,,,,,,,,,,,,,,,,,,,,,,,,,,,,,,,,,,118.04681887499464,119.02988099999493,119.04663850000361,120.03106845900766,"[8, 1, 2]",,,,,,,,,,,,,,,,,,,,,,,,,,,,,,,001,2025-07-25_19h02.48.063,CGTriskyDMtask,2022.2.1,59.98257518061203,
,,,3,,,,,,,,,0,2,2,2,,,,,,,,,,,,,,,,,,,,,,,,,,,,,,,,,,,,,,,,0,,,,,,,,,,,,,,,,,,120.03106845900766,120.03106845900766,120.03106845900766,0.0003285410057287663,45678,-0.06222222222222222,-0.4033333333333333,1,0,0,cont_button,122.77992729199468,123.77995150000788,,,,,,,,,,,,,,,,,,001,2025-07-25_19h02.48.063,CGTriskyDMtask,2022.2.1,59.98257518061203,
,,,4,,,,,,,,,0,3,3,3,0,0,0,0,,,,,,,,,,,,,,,,,,,,,,,,,,,,,,,,,,,,,,,,,,,,,,,,,123.77995150000788,124.76356537500396,124.77996983399498,125.7640612499963,"[7, 8, 6]",,,,,,,,,,,,,,,,,,,,,,,,,,,,,,,001,2025-07-25_19h02.48.063,CGTriskyDMtask,2022.2.1,59.98257518061203,
,,,4,,,,,,,,,0,3,3,3,1,0,1,0,,,,,,,,,,,,,,,,,,,,,,,,,,,,,,,,,,,,,,,,,,,,,,,,,125.7640612499963,126.7635642499954,126.7635642499954,127.76357787499728,"[7, 8, 6]",,,,,,,,,,,,,,,,,,,,,,,,,,,,,,,001,2025-07-25_19h02.48.063,CGTriskyDMtask,2022.2.1,59.98257518061203,
,,,4,,,,,,,,,0,3,3,3,2,0,2,0,,,,,,,,,,,,,,,,,,,,,,,,,,,,,,,,,,,,,,,,,,,,,,,,,127.76357787499728,128.7637082500005,128.7637082500005,129.76421537500573,"[7, 8, 6]",,,,,,,,,,,,,,,,,,,,,,,,,,,,,,,001,2025-07-25_19h02.48.063,CGTriskyDMtask,2022.2.1,59.98257518061203,
,,,4,,,,,,,,,0,3,3,3,,,,,,,,,,,,,,,,,,,,,,,,,,,,,,,,,,,,,,,,0,,,,,,,,,,,,,,,,,,129.76421537500573,129.76421537500573,129.76421537500573,-0.00014237500727176666,56789,-0.06222222222222222,-0.4033333333333333,1,0,0,cont_button,131.34770524999476,132.3469227089954,,,,,,,,,,,,,,,,,,001,2025-07-25_19h02.48.063,CGTriskyDMtask,2022.2.1,59.98257518061203,
,,,5,,,,,,,,,0,4,4,4,0,0,0,0,,,,,,,,,,,,,,,,,,,,,,,,,,,,,,,,,,,,,,,,,,,,,,,,,132.3469227089954,133.33075845900748,133.3470767090039,134.3303279170068,"[8, 5, 4]",,,,,,,,,,,,,,,,,,,,,,,,,,,,,,,001,2025-07-25_19h02.48.063,CGTriskyDMtask,2022.2.1,59.98257518061203,
,,,5,,,,,,,,,0,4,4,4,1,0,1,0,,,,,,,,,,,,,,,,,,,,,,,,,,,,,,,,,,,,,,,,,,,,,,,,,134.3303279170068,135.33054129200173,135.33054129200173,136.33118991700758,"[8, 5, 4]",,,,,,,,,,,,,,,,,,,,,,,,,,,,,,,001,2025-07-25_19h02.48.063,CGTriskyDMtask,2022.2.1,59.98257518061203,
,,,5,,,,,,,,,0,4,4,4,2,0,2,0,,,,,,,,,,,,,,,,,,,,,,,,,,,,,,,,,,,,,,,,,,,,,,,,,136.33118991700758,137.33073258399963,137.33073258399963,138.3306067920057,"[8, 5, 4]",,,,,,,,,,,,,,,,,,,,,,,,,,,,,,,001,2025-07-25_19h02.48.063,CGTriskyDMtask,2022.2.1,59.98257518061203,
,,,5,,,,,,,,,0,4,4,4,,,,,,,,,,,,,,,,,,,,,,,,,,,,,,,,,,,,,,,,0,,,,,,,,,,,,,,,,,,138.3306067920057,138.3306067920057,138.3306067920057,-0.000484500007587485,45678,-0.06222222222222222,-0.4033333333333333,1,0,0,cont_button,141.26401566699496,142.26411437500792,,,,,,,,,,,,,,,,,,001,2025-07-25_19h02.48.063,CGTriskyDMtask,2022.2.1,59.98257518061203,
,,,6,,,,,,,,,0,5,5,5,0,0,0,0,,,,,,,,,,,,,,,,,,,,,,,,,,,,,,,,,,,,,,,,,,,,,,,,,142.26411437500792,143.2483632920048,143.26482566700724,144.24758066699724,"[9, 4, 6]",,,,,,,,,,,,,,,,,,,,,,,,,,,,,,,001,2025-07-25_19h02.48.063,CGTriskyDMtask,2022.2.1,59.98257518061203,
,,,6,,,,,,,,,0,5,5,5,1,0,1,0,,,,,,,,,,,,,,,,,,,,,,,,,,,,,,,,,,,,,,,,,,,,,,,,,144.26426837500185,145.26420083400444,145.26420083400444,146.264302459007,"[9, 4, 6]",,,,,,,,,,,,,,,,,,,,,,,,,,,,,,,001,2025-07-25_19h02.48.063,CGTriskyDMtask,2022.2.1,59.98257518061203,
,,,6,,,,,,,,,0,5,5,5,2,0,2,0,,,,,,,,,,,,,,,,,,,,,,,,,,,,,,,,,,,,,,,,,,,,,,,,,146.264302459007,147.26466995899682,147.26466995899682,148.26532037500874,"[9, 4, 6]",,,,,,,,,,,,,,,,,,,,,,,,,,,,,,,001,2025-07-25_19h02.48.063,CGTriskyDMtask,2022.2.1,59.98257518061203,
,,,6,,,,,,,,,0,5,5,5,,,,,,,,,,,,,,,,,,,,,,,,,,,,,,,,,,,,,,,,0,,,,,,,,,,,,,,,,,,148.26532037500874,148.26532037500874,148.26532037500874,-0.0001286670012632385,3456789,-0.06222222222222222,-0.4033333333333333,1,0,0,cont_button,149.54860745900078,150.54796254199755,,,,,,,,,,,,,,,,,,001,2025-07-25_19h02.48.063,CGTriskyDMtask,2022.2.1,59.98257518061203,
,,,7,,,,,,,,,0,6,6,6,0,0,0,0,,,,,,,,,,,,,,,,,,,,,,,,,,,,,,,,,,,,,,,,,,,,,,,,,150.54796254199755,151.54941841699474,151.54941841699474,152.5488701669965,"[2, 3, 1]",,,,,,,,,,,,,,,,,,,,,,,,,,,,,,,001,2025-07-25_19h02.48.063,CGTriskyDMtask,2022.2.1,59.98257518061203,
,,,7,,,,,,,,,0,6,6,6,1,0,1,0,,,,,,,,,,,,,,,,,,,,,,,,,,,,,,,,,,,,,,,,,,,,,,,,,152.5488701669965,153.54830720899918,153.56507145900105,154.5479997920047,"[2, 3, 1]",,,,,,,,,,,,,,,,,,,,,,,,,,,,,,,001,2025-07-25_19h02.48.063,CGTriskyDMtask,2022.2.1,59.98257518061203,
,,,7,,,,,,,,,0,6,6,6,2,0,2,0,,,,,,,,,,,,,,,,,,,,,,,,,,,,,,,,,,,,,,,,,,,,,,,,,154.5479997920047,155.54870704200584,155.54870704200584,156.54933804200846,"[2, 3, 1]",,,,,,,,,,,,,,,,,,,,,,,,,,,,,,,001,2025-07-25_19h02.48.063,CGTriskyDMtask,2022.2.1,59.98257518061203,
,,,7,,,,,,,,,0,6,6,6,,,,,,,,,,,,,,,,,,,,,,,,,,,,,,,,,,,,,,,,0,,,,,,,,,,,,,,,,,,156.54933804200846,156.54933804200846,156.54933804200846,-0.0005328330007614568,34567,-0.06222222222222222,-0.4033333333333333,1,0,0,cont_button,159.9648314590013,160.96598300000187,,,,,,,,,,,,,,,,,,001,2025-07-25_19h02.48.063,CGTriskyDMtask,2022.2.1,59.98257518061203,
,,,8,,,,,,,,,0,7,7,7,0,0,0,0,,,,,,,,,,,,,,,,,,,,,,,,,,,,,,,,,,,,,,,,,,,,,,,,,160.96598300000187,161.9651728750032,161.9817763750034,162.96499970900186,"[7, 3, 4]",,,,,,,,,,,,,,,,,,,,,,,,,,,,,,,001,2025-07-25_19h02.48.063,CGTriskyDMtask,2022.2.1,59.98257518061203,
,,,8,,,,,,,,,0,7,7,7,1,0,1,0,,,,,,,,,,,,,,,,,,,,,,,,,,,,,,,,,,,,,,,,,,,,,,,,,162.96499970900186,163.96504424999875,163.96504424999875,164.96506270900136,"[7, 3, 4]",,,,,,,,,,,,,,,,,,,,,,,,,,,,,,,001,2025-07-25_19h02.48.063,CGTriskyDMtask,2022.2.1,59.98257518061203,
,,,8,,,,,,,,,0,7,7,7,2,0,2,0,,,,,,,,,,,,,,,,,,,,,,,,,,,,,,,,,,,,,,,,,,,,,,,,,164.96506270900136,165.96566058399912,165.96566058399912,166.96515441700467,"[7, 3, 4]",,,,,,,,,,,,,,,,,,,,,,,,,,,,,,,001,2025-07-25_19h02.48.063,CGTriskyDMtask,2022.2.1,59.98257518061203,
,,,8,,,,,,,,,0,7,7,7,,,,,,,,,,,,,,,,,,,,,,,,,,,,,,,,,,,,,,,,0,,,,,,,,,,,,,,,,,,166.96515441700467,166.96515441700467,166.96515441700467,-0.0003216250042896718,456789,-0.06222222222222222,-0.4033333333333333,1,0,0,cont_button,170.73174083400227,171.73241491700173,,,,,,,,,,,,,,,,,,001,2025-07-25_19h02.48.063,CGTriskyDMtask,2022.2.1,59.98257518061203,
,,,9,,,,,,,,,0,8,8,8,0,0,0,0,,,,,,,,,,,,,,,,,,,,,,,,,,,,,,,,,,,,,,,,,,,,,,,,,171.73241491700173,172.7168071250053,172.73294087500835,173.71574520900322,"[2, 4, 7]",,,,,,,,,,,,,,,,,,,,,,,,,,,,,,,001,2025-07-25_19h02.48.063,CGTriskyDMtask,2022.2.1,59.98257518061203,
,,,9,,,,,,,,,0,8,8,8,1,0,1,0,,,,,,,,,,,,,,,,,,,,,,,,,,,,,,,,,,,,,,,,,,,,,,,,,173.71574520900322,174.71681883400015,174.71681883400015,175.73215720900043,"[2, 4, 7]",,,,,,,,,,,,,,,,,,,,,,,,,,,,,,,001,2025-07-25_19h02.48.063,CGTriskyDMtask,2022.2.1,59.98257518061203,
,,,9,,,,,,,,,0,8,8,8,2,0,2,0,,,,,,,,,,,,,,,,,,,,,,,,,,,,,,,,,,,,,,,,,,,,,,,,,175.73215720900043,176.7156207920052,176.73237558400433,177.71565520900185,"[2, 4, 7]",,,,,,,,,,,,,,,,,,,,,,,,,,,,,,,001,2025-07-25_19h02.48.063,CGTriskyDMtask,2022.2.1,59.98257518061203,
,,,9,,,,,,,,,0,8,8,8,,,,,,,,,,,,,,,,,,,,,,,,,,,,,,,,,,,,,,,,0,,,,,,,,,,,,,,,,,,177.71565520900185,177.71565520900185,177.71565520900185,-0.000581832995521836,5678,-0.06222222222222222,-0.4033333333333333,1,0,0,cont_button,189.63296474999515,190.63283712499833,,,,,,,,,,,,,,,,,,001,2025-07-25_19h02.48.063,CGTriskyDMtask,2022.2.1,59.98257518061203,
,,,10,,,,,,,,,0,9,9,9,0,0,0,0,,,,,,,,,,,,,,,,,,,,,,,,,,,,,,,,,,,,,,,,,,,,,,,,,190.63283712499833,191.6162026249949,191.63422570900002,192.6162117089989,"[4, 8, 3]",,,,,,,,,,,,,,,,,,,,,,,,,,,,,,,001,2025-07-25_19h02.48.063,CGTriskyDMtask,2022.2.1,59.98257518061203,
,,,10,,,,,,,,,0,9,9,9,1,0,1,0,,,,,,,,,,,,,,,,,,,,,,,,,,,,,,,,,,,,,,,,,,,,,,,,,192.63290154200513,193.61629666699446,193.63291766699695,194.6162654170039,"[4, 8, 3]",,,,,,,,,,,,,,,,,,,,,,,,,,,,,,,001,2025-07-25_19h02.48.063,CGTriskyDMtask,2022.2.1,59.98257518061203,
,,,10,,,,,,,,,0,9,9,9,2,0,2,0,,,,,,,,,,,,,,,,,,,,,,,,,,,,,,,,,,,,,,,,,,,,,,,,,194.6162654170039,195.61628187500173,195.61628187500173,196.6169545839948,"[4, 8, 3]",,,,,,,,,,,,,,,,,,,,,,,,,,,,,,,001,2025-07-25_19h02.48.063,CGTriskyDMtask,2022.2.1,59.98257518061203,
,,,10,,,,,,,,,0,9,9,9,,,,,,,,,,,,,,,,,,,,,,,,,,,,,,,,,,,,,,,,0,,,,,,,,,,,,,,,,,,196.6169545839948,196.6169545839948,196.6169545839948,-0.00023520799004472792,345678,-0.06222222222222222,-0.4033333333333333,1,0,0,cont_button,197.66626029199688,198.66636650000873,,,,,,,,,,,,,,,,,,001,2025-07-25_19h02.48.063,CGTriskyDMtask,2022.2.1,59.98257518061203,
,,,11,,,,,,,,,0,10,10,10,0,0,0,0,,,,,,,,,,,,,,,,,,,,,,,,,,,,,,,,,,,,,,,,,,,,,,,,,198.66636650000873,199.64981987500505,199.66652866700315,200.65001179200772,"[1, 4, 3]",,,,,,,,,,,,,,,,,,,,,,,,,,,,,,,001,2025-07-25_19h02.48.063,CGTriskyDMtask,2022.2.1,59.98257518061203,
,,,11,,,,,,,,,0,10,10,10,1,0,1,0,,,,,,,,,,,,,,,,,,,,,,,,,,,,,,,,,,,,,,,,,,,,,,,,,200.65001179200772,201.6499132089957,201.6499132089957,202.64996362500824,"[1, 4, 3]",,,,,,,,,,,,,,,,,,,,,,,,,,,,,,,001,2025-07-25_19h02.48.063,CGTriskyDMtask,2022.2.1,59.98257518061203,
,,,11,,,,,,,,,0,10,10,10,2,0,2,0,,,,,,,,,,,,,,,,,,,,,,,,,,,,,,,,,,,,,,,,,,,,,,,,,202.64996362500824,203.6501044589968,203.6501044589968,204.65004224999575,"[1, 4, 3]",,,,,,,,,,,,,,,,,,,,,,,,,,,,,,,001,2025-07-25_19h02.48.063,CGTriskyDMtask,2022.2.1,59.98257518061203,
,,,11,,,,,,,,,0,10,10,10,,,,,,,,,,,,,,,,,,,,,,,,,,,,,,,,,,,,,,,,0,,,,,,,,,,,,,,,,,,204.65004224999575,204.65004224999575,204.65004224999575,-0.0006395420059561729,45678,-0.06222222222222222,-0.4033333333333333,1,0,0,cont_button,206.46720229199855,207.4679296670074,,,,,,,,,,,,,,,,,,001,2025-07-25_19h02.48.063,CGTriskyDMtask,2022.2.1,59.98257518061203,
,,,12,,,,,,,,,0,11,11,11,0,0,0,0,,,,,,,,,,,,,,,,,,,,,,,,,,,,,,,,,,,,,,,,,,,,,,,,,207.4679296670074,208.45102170899918,208.46782483400602,209.45005633399705,"[9, 6, 7]",,,,,,,,,,,,,,,,,,,,,,,,,,,,,,,001,2025-07-25_19h02.48.063,CGTriskyDMtask,2022.2.1,59.98257518061203,
,,,12,,,,,,,,,0,11,11,11,1,0,1,0,,,,,,,,,,,,,,,,,,,,,,,,,,,,,,,,,,,,,,,,,,,,,,,,,209.45005633399705,210.45028124999953,210.45028124999953,211.4503107920027,"[9, 6, 7]",,,,,,,,,,,,,,,,,,,,,,,,,,,,,,,001,2025-07-25_19h02.48.063,CGTriskyDMtask,2022.2.1,59.98257518061203,
,,,12,,,,,,,,,0,11,11,11,2,0,2,0,,,,,,,,,,,,,,,,,,,,,,,,,,,,,,,,,,,,,,,,,,,,,,,,,211.4503107920027,212.45078233399545,212.45078233399545,213.45040870900266,"[9, 6, 7]",,,,,,,,,,,,,,,,,,,,,,,,,,,,,,,001,2025-07-25_19h02.48.063,CGTriskyDMtask,2022.2.1,59.98257518061203,
,,,12,,,,,,,,,0,11,11,11,,,,,,,,,,,,,,,,,,,,,,,,,,,,,,,,,,,,,,,,0,,,,,,,,,,,,,,,,,,213.45040870900266,213.45040870900266,213.45040870900266,-0.00037066701042931527,45678,-0.06222222222222222,-0.4033333333333333,1,0,0,cont_button,217.8503031250002,218.85061604200746,,,,,,,,,,,,,,,,,,001,2025-07-25_19h02.48.063,CGTriskyDMtask,2022.2.1,59.98257518061203,
,,,13,,,,,,,,,0,12,12,12,0,0,0,0,,,,,,,,,,,,,,,,,,,,,,,,,,,,,,,,,,,,,,,,,,,,,,,,,218.85061604200746,219.83427883400873,219.85068508400582,220.83424483399722,"[6, 2, 9]",,,,,,,,,,,,,,,,,,,,,,,,,,,,,,,001,2025-07-25_19h02.48.063,CGTriskyDMtask,2022.2.1,59.98257518061203,
,,,13,,,,,,,,,0,12,12,12,1,0,1,0,,,,,,,,,,,,,,,,,,,,,,,,,,,,,,,,,,,,,,,,,,,,,,,,,220.83424483399722,221.8352362500009,221.8352362500009,222.834162500003,"[6, 2, 9]",,,,,,,,,,,,,,,,,,,,,,,,,,,,,,,001,2025-07-25_19h02.48.063,CGTriskyDMtask,2022.2.1,59.98257518061203,
,,,13,,,,,,,,,0,12,12,12,2,0,2,0,,,,,,,,,,,,,,,,,,,,,,,,,,,,,,,,,,,,,,,,,,,,,,,,,222.834162500003,223.8346928749961,223.8346928749961,224.834141542,"[6, 2, 9]",,,,,,,,,,,,,,,,,,,,,,,,,,,,,,,001,2025-07-25_19h02.48.063,CGTriskyDMtask,2022.2.1,59.98257518061203,
,,,13,,,,,,,,,0,12,12,12,,,,,,,,,,,,,,,,,,,,,,,,,,,,,,,,,,,,,,,,0,,,,,,,,,,,,,,,,,,224.834141542,224.834141542,224.834141542,-0.0006110419926699251,234567,-0.06222222222222222,-0.4033333333333333,1,0,0,cont_button,226.21784104200196,227.21834570899955,,,,,,,,,,,,,,,,,,001,2025-07-25_19h02.48.063,CGTriskyDMtask,2022.2.1,59.98257518061203,
,,,14,,,,,,,,,0,13,13,13,0,0,0,0,,,,,,,,,,,,,,,,,,,,,,,,,,,,,,,,,,,,,,,,,,,,,,,,,227.21834570899955,228.20070120900346,228.2350762499991,229.2019534590072,"[9, 2, 7]",,,,,,,,,,,,,,,,,,,,,,,,,,,,,,,001,2025-07-25_19h02.48.063,CGTriskyDMtask,2022.2.1,59.98257518061203,
,,,14,,,,,,,,,0,13,13,13,1,0,1,0,,,,,,,,,,,,,,,,,,,,,,,,,,,,,,,,,,,,,,,,,,,,,,,,,229.2019534590072,230.2018301670032,230.2018301670032,231.20137487500324,"[9, 2, 7]",,,,,,,,,,,,,,,,,,,,,,,,,,,,,,,001,2025-07-25_19h02.48.063,CGTriskyDMtask,2022.2.1,59.98257518061203,
,,,14,,,,,,,,,0,13,13,13,2,0,2,0,,,,,,,,,,,,,,,,,,,,,,,,,,,,,,,,,,,,,,,,,,,,,,,,,231.20137487500324,232.20206062500074,232.20206062500074,233.20161662499595,"[9, 2, 7]",,,,,,,,,,,,,,,,,,,,,,,,,,,,,,,001,2025-07-25_19h02.48.063,CGTriskyDMtask,2022.2.1,59.98257518061203,
,,,14,,,,,,,,,0,13,13,13,,,,,,,,,,,,,,,,,,,,,,,,,,,,,,,,,,,,,,,,0,,,,,,,,,,,,,,,,,,233.20161662499595,233.20161662499595,233.20161662499595,0.015278916995157488,34567,-0.06222222222222222,-0.4033333333333333,1,0,0,cont_button,237.75173583399737,238.75265516700165,,,,,,,,,,,,,,,,,,001,2025-07-25_19h02.48.063,CGTriskyDMtask,2022.2.1,59.98257518061203,
,,,,,,,,,,,,,,,,,,,,,,,,,,,,,,,,,,,,,,,,,,,,,,,,,,,,,,,,,,,,,,,,,,,,,,,,,,,,,,,,,,,,,,238.75265516700165,238.75265516700165,return,5.211047291013529,,,,,,,,,,,,,,001,2025-07-25_19h02.48.063,CGTriskyDMtask,2022.2.1,59.98257518061203,
,,,,,,,,,,,,,,,,,,,,,,,,,,,,,,,,,,,,,,,,,,,,,,,,,,,,,,,,,,,,,,,,,,,,,,,,,,,,,,,,,,,,,,,,,,243.9849579169968,243.9849579169968,return,1.3585767909971764,,,,,,,,,,001,2025-07-25_19h02.48.063,CGTriskyDMtask,2022.2.1,59.98257518061203,
,,,,,,,,,,,,,,,,,,,,,,,,,,,,,,,,,,,,,,,,,,,,,,,,,,,,,,,,,,,,,,,,,,,,,,,,,,,,,,,,,,,,,,,,,,,,,,247.35209004199714,248.35225316700235,248.35225316700235,249.35179850000713,249.35179850000713,249.35179850000713,249.35179850000713,-0.0006550830003106967,34567,,,,,,
