digitSpanForward,digits,digitsReverse,digitSpanReverse,digitsReverseCorrAnswer,trialNumber,trialFSPractice.thisRepN,trialFSPractice.thisTrialN,trialFSPractice.thisN,trialFSPractice.thisIndex,DigitLoopPractice.thisRepN,DigitLoopPractice.thisTrialN,DigitLoopPractice.thisN,DigitLoopPractice.thisIndex,trialsFS.thisRepN,trialsFS.thisTrialN,trialsFS.thisN,trialsFS.thisIndex,digitLoop.thisRepN,digitLoop.thisTrialN,digitLoop.thisN,digitLoop.thisIndex,trialsPracticeBS.thisRepN,trialsPracticeBS.thisTrialN,trialsPracticeBS.thisN,trialsPracticeBS.thisIndex,digitLoopPracticeBS.thisRepN,digitLoopPracticeBS.thisTrialN,digitLoopPracticeBS.thisN,digitLoopPracticeBS.thisIndex,trialsBS.thisRepN,trialsBS.thisTrialN,trialsBS.thisN,trialsBS.thisIndex,digitLoopBS.thisRepN,digitLoopBS.thisTrialN,digitLoopBS.thisN,digitLoopBS.thisIndex,thisRow.t,notes,GenInsText.started,movealong.started,movealong.keys,movealong.rt,Reminder1.started,movealong2.started,movealong2.keys,movealong2.rt,Reminder2.started,movealong3.started,movealong3.keys,movealong3.rt,FSGenInsText.started,startPractice.started,startPractice.keys,startPractice.rt,fixation_2.started,pres_text_practice.started,fixation_2.stopped,pres_text_practice.stopped,recall_txtPractice.started,textboxPractice.started,cont_buttonPractice.started,mousePractice.started,textboxPractice.text,correct,mousePractice.x,mousePractice.y,mousePractice.leftButton,mousePractice.midButton,mousePractice.rightButton,mousePractice.clicked_name,feedbac_textPractice.started,feedbac_textPractice.stopped,praccomplete.started,startFSreal.started,startFSreal.keys,startFSreal.rt,fixation.started,presentation_text.started,fixation.stopped,presentation_text.stopped,digitsForTrial,recall_txt.started,textbox.started,cont_button.started,mouse_3.started,textbox.text,mouse_3.x,mouse_3.y,mouse_3.leftButton,mouse_3.midButton,mouse_3.rightButton,mouse_3.clicked_name,feedback_text.started,feedback_text.stopped,roundTransition.started,moveToBS.started,moveToBS.keys,moveToBS.rt,BSGenInsText.started,startBSprac.started,startBSprac.keys,startBSprac.rt,fixation_3.started,pres_text_practice_2.started,fixation_3.stopped,pres_text_practice_2.stopped,recall_txtPractice_2.started,textboxPractice_2.started,cont_buttonPractice_2.started,mousePractice_2.started,textboxPractice_2.text,mousePractice_2.x,mousePractice_2.y,mousePractice_2.leftButton,mousePractice_2.midButton,mousePractice_2.rightButton,mousePractice_2.clicked_name,feedbac_textPractice_2.started,feedbac_textPractice_2.stopped,praccompleteBS.started,startBSreal.started,startBSreal.keys,startBSreal.rt,fixationBS.started,fixationBS.stopped,presentation_textBS.started,presentation_textBS.stopped,recall_txtBS.started,textboxBS.started,cont_buttonBS.started,mouseBS.started,textboxBS.text,mouseBS.x,mouseBS.y,mouseBS.leftButton,mouseBS.midButton,mouseBS.rightButton,mouseBS.clicked_name,feedback_textBS.started,feedback_textBS.stopped,ThankYou.started,ThankYou.stopped,participant,date,expName,psychopyVersion,frameRate,
,,,,,,,,,,,,,,,,,,,,,,,,,,,,,,,,,,,,,,,,16.477056790987263,16.477056790987263,return,79.32580624998081,,,,,,,,,,,,,,,,,,,,,,,,,,,,,,,,,,,,,,,,,,,,,,,,,,,,,,,,,,,,,,,,,,,,,,,,,,,,,,,,,,,,,,,,,,,,,,,,,,,,,001,2025-07-28_08h20.05.971,CGTriskyDMtask,2022.2.1,59.97196322882325,
,,,,,,,,,,,,,,,,,,,,,,,,,,,,,,,,,,,,,,,,,,,,95.8653069580032,95.8653069580032,return,4.77757649999694,,,,,,,,,,,,,,,,,,,,,,,,,,,,,,,,,,,,,,,,,,,,,,,,,,,,,,,,,,,,,,,,,,,,,,,,,,,,,,,,,,,,,,,,,,,,,,,,,001,2025-07-28_08h20.05.971,CGTriskyDMtask,2022.2.1,59.97196322882325,
,,,,,,,,,,,,,,,,,,,,,,,,,,,,,,,,,,,,,,,,,,,,,,,,100.67029258300317,100.67029258300317,return,6.569377915991936,,,,,,,,,,,,,,,,,,,,,,,,,,,,,,,,,,,,,,,,,,,,,,,,,,,,,,,,,,,,,,,,,,,,,,,,,,,,,,,,,,,,,,,,,,,,,001,2025-07-28_08h20.05.971,CGTriskyDMtask,2022.2.1,59.97196322882325,
,,,,,,,,,,,,,,,,,,,,,,,,,,,,,,,,,,,,,,,,,,,,,,,,,,,,107.27028129098471,107.27028129098471,return,21.45985087499139,,,,,,,,,,,,,,,,,,,,,,,,,,,,,,,,,,,,,,,,,,,,,,,,,,,,,,,,,,,,,,,,,,,,,,,,,,,,,,,,,,,,,,,,,001,2025-07-28_08h20.05.971,CGTriskyDMtask,2022.2.1,59.97196322882325,
3,342,24,2,42,,0,0,0,0,,,,,,,,,,,,,,,,,,,,,,,,,,,,,,,,,,,,,,,,,,,,,,,132.75452041599783,133.7379755830043,133.7547176659864,134.73730912499013,134.73730912499013,134.73730912499013,134.73730912499013,0.015987332997610793,342,1,0.03111111111111111,-0.41444444444444445,1,0,0,cont_buttonPractice,139.2548250409891,140.25533137499588,,,,,,,,,,,,,,,,,,,,,,,,,,,,,,,,,,,,,,,,,,,,,,,,,,,,,,,,,,,,,,,,,,,,,,,001,2025-07-28_08h20.05.971,CGTriskyDMtask,2022.2.1,59.97196322882325,
3,937,73,2,37,,0,1,1,1,,,,,,,,,,,,,,,,,,,,,,,,,,,,,,,,,,,,,,,,,,,,,,,144.25503854098497,145.25490137498127,145.25490137498127,146.25510854099412,146.25510854099412,146.25510854099412,146.25510854099412,-0.00047137500951066613,937,1,0.03111111111111111,-0.41444444444444445,1,0,0,cont_buttonPractice,148.93843650000053,149.9384168329998,,,,,,,,,,,,,,,,,,,,,,,,,,,,,,,,,,,,,,,,,,,,,,,,,,,,,,,,,,,,,,,,,,,,,,,001,2025-07-28_08h20.05.971,CGTriskyDMtask,2022.2.1,59.97196322882325,
,,,,,,,,,,,,,,,,,,,,,,,,,,,,,,,,,,,,,,,,,,,,,,,,,,,,,,,,,,,,,,,,,,,,,,,,,,149.9384168329998,149.9384168329998,return,3.682995875016786,,,,,,,,,,,,,,,,,,,,,,,,,,,,,,,,,,,,,,,,,,,,,,,,,,,,,,,,,,,,,,,,,,,001,2025-07-28_08h20.05.971,CGTriskyDMtask,2022.2.1,59.97196322882325,
,,,,,1,,,,,,,,,0,0,0,0,0,0,0,0,,,,,,,,,,,,,,,,,,,,,,,,,,,,,,,,,,,,,,,,,,,,,,,,,,,,,,,,,153.6400637080078,154.63928683300037,154.65513420800562,155.63899520799168,"[1, 9, 2]",,,,,,,,,,,,,,,,,,,,,,,,,,,,,,,,,,,,,,,,,,,,,,,,,,,,,,,,,,,,,,001,2025-07-28_08h20.05.971,CGTriskyDMtask,2022.2.1,59.97196322882325,
,,,,,1,,,,,,,,,0,0,0,0,1,0,1,0,,,,,,,,,,,,,,,,,,,,,,,,,,,,,,,,,,,,,,,,,,,,,,,,,,,,,,,,,155.63899520799168,156.6396482079872,156.6396482079872,157.6395732910023,"[1, 9, 2]",,,,,,,,,,,,,,,,,,,,,,,,,,,,,,,,,,,,,,,,,,,,,,,,,,,,,,,,,,,,,,001,2025-07-28_08h20.05.971,CGTriskyDMtask,2022.2.1,59.97196322882325,
,,,,,1,,,,,,,,,0,0,0,0,2,0,2,0,,,,,,,,,,,,,,,,,,,,,,,,,,,,,,,,,,,,,,,,,,,,,,,,,,,,,,,,,157.6395732910023,158.6395599579846,158.6395599579846,159.63866766600404,"[1, 9, 2]",,,,,,,,,,,,,,,,,,,,,,,,,,,,,,,,,,,,,,,,,,,,,,,,,,,,,,,,,,,,,,001,2025-07-28_08h20.05.971,CGTriskyDMtask,2022.2.1,59.97196322882325,
,,,,,1,,,,,,,,,0,0,0,0,,,,,,,,,,,,,,,,,,,,,,,,,,,,,,,,,,,,,,,,,,,,,,,,1,,,,,,,,,,,,,,,,,,159.63866766600404,159.63866766600404,159.63866766600404,0.008175708004273474,192,0.03111111111111111,-0.41444444444444445,1,0,0,cont_button,162.37238279098528,163.3729039579921,,,,,,,,,,,,,,,,,,,,,,,,,,,,,,,,,,,,,,,,,,,,,,,,,001,2025-07-28_08h20.05.971,CGTriskyDMtask,2022.2.1,59.97196322882325,
,,,,,2,,,,,,,,,0,1,1,1,0,0,0,0,,,,,,,,,,,,,,,,,,,,,,,,,,,,,,,,,,,,,,,,,,,,,,,,,,,,,,,,,163.3729039579921,164.37282791599864,164.37282791599864,165.3727886249835,"[1, 2, 4, 6]",,,,,,,,,,,,,,,,,,,,,,,,,,,,,,,,,,,,,,,,,,,,,,,,,,,,,,,,,,,,,,001,2025-07-28_08h20.05.971,CGTriskyDMtask,2022.2.1,59.97196322882325,
,,,,,2,,,,,,,,,0,1,1,1,1,0,1,0,,,,,,,,,,,,,,,,,,,,,,,,,,,,,,,,,,,,,,,,,,,,,,,,,,,,,,,,,165.3727886249835,166.35572349998984,166.37231408298248,167.35579633299494,"[1, 2, 4, 6]",,,,,,,,,,,,,,,,,,,,,,,,,,,,,,,,,,,,,,,,,,,,,,,,,,,,,,,,,,,,,,001,2025-07-28_08h20.05.971,CGTriskyDMtask,2022.2.1,59.97196322882325,
,,,,,2,,,,,,,,,0,1,1,1,2,0,2,0,,,,,,,,,,,,,,,,,,,,,,,,,,,,,,,,,,,,,,,,,,,,,,,,,,,,,,,,,167.35579633299494,168.35630049998872,168.35630049998872,169.35612145799678,"[1, 2, 4, 6]",,,,,,,,,,,,,,,,,,,,,,,,,,,,,,,,,,,,,,,,,,,,,,,,,,,,,,,,,,,,,,001,2025-07-28_08h20.05.971,CGTriskyDMtask,2022.2.1,59.97196322882325,
,,,,,2,,,,,,,,,0,1,1,1,3,0,3,0,,,,,,,,,,,,,,,,,,,,,,,,,,,,,,,,,,,,,,,,,,,,,,,,,,,,,,,,,169.35612145799678,170.35592637499212,170.35592637499212,171.35605075000785,"[1, 2, 4, 6]",,,,,,,,,,,,,,,,,,,,,,,,,,,,,,,,,,,,,,,,,,,,,,,,,,,,,,,,,,,,,,001,2025-07-28_08h20.05.971,CGTriskyDMtask,2022.2.1,59.97196322882325,
,,,,,2,,,,,,,,,0,1,1,1,,,,,,,,,,,,,,,,,,,,,,,,,,,,,,,,,,,,,,,,,,,,,,,,1,,,,,,,,,,,,,,,,,,171.35605075000785,171.35605075000785,171.35605075000785,-0.0006933330150786787,1246,0.03111111111111111,-0.41444444444444445,1,0,0,cont_button,174.12284154098597,175.12280591600575,,,,,,,,,,,,,,,,,,,,,,,,,,,,,,,,,,,,,,,,,,,,,,,,,001,2025-07-28_08h20.05.971,CGTriskyDMtask,2022.2.1,59.97196322882325,
,,,,,3,,,,,,,,,0,2,2,2,0,0,0,0,,,,,,,,,,,,,,,,,,,,,,,,,,,,,,,,,,,,,,,,,,,,,,,,,,,,,,,,,175.12280591600575,176.10620424998342,176.1229733749933,177.10680774998036,"[5, 1, 7, 9, 2]",,,,,,,,,,,,,,,,,,,,,,,,,,,,,,,,,,,,,,,,,,,,,,,,,,,,,,,,,,,,,,001,2025-07-28_08h20.05.971,CGTriskyDMtask,2022.2.1,59.97196322882325,
,,,,,3,,,,,,,,,0,2,2,2,1,0,1,0,,,,,,,,,,,,,,,,,,,,,,,,,,,,,,,,,,,,,,,,,,,,,,,,,,,,,,,,,177.10680774998036,178.10624150000513,178.10624150000513,179.10666525000124,"[5, 1, 7, 9, 2]",,,,,,,,,,,,,,,,,,,,,,,,,,,,,,,,,,,,,,,,,,,,,,,,,,,,,,,,,,,,,,001,2025-07-28_08h20.05.971,CGTriskyDMtask,2022.2.1,59.97196322882325,
,,,,,3,,,,,,,,,0,2,2,2,2,0,2,0,,,,,,,,,,,,,,,,,,,,,,,,,,,,,,,,,,,,,,,,,,,,,,,,,,,,,,,,,179.10666525000124,180.10675308300415,180.10675308300415,181.1063589999976,"[5, 1, 7, 9, 2]",,,,,,,,,,,,,,,,,,,,,,,,,,,,,,,,,,,,,,,,,,,,,,,,,,,,,,,,,,,,,,001,2025-07-28_08h20.05.971,CGTriskyDMtask,2022.2.1,59.97196322882325,
,,,,,3,,,,,,,,,0,2,2,2,3,0,3,0,,,,,,,,,,,,,,,,,,,,,,,,,,,,,,,,,,,,,,,,,,,,,,,,,,,,,,,,,181.1063589999976,182.10680124998908,182.10680124998908,183.10658954098471,"[5, 1, 7, 9, 2]",,,,,,,,,,,,,,,,,,,,,,,,,,,,,,,,,,,,,,,,,,,,,,,,,,,,,,,,,,,,,,001,2025-07-28_08h20.05.971,CGTriskyDMtask,2022.2.1,59.97196322882325,
,,,,,3,,,,,,,,,0,2,2,2,4,0,4,0,,,,,,,,,,,,,,,,,,,,,,,,,,,,,,,,,,,,,,,,,,,,,,,,,,,,,,,,,183.10658954098471,184.10675458298647,184.10675458298647,185.10677487499197,"[5, 1, 7, 9, 2]",,,,,,,,,,,,,,,,,,,,,,,,,,,,,,,,,,,,,,,,,,,,,,,,,,,,,,,,,,,,,,001,2025-07-28_08h20.05.971,CGTriskyDMtask,2022.2.1,59.97196322882325,
,,,,,3,,,,,,,,,0,2,2,2,,,,,,,,,,,,,,,,,,,,,,,,,,,,,,,,,,,,,,,,,,,,,,,,1,,,,,,,,,,,,,,,,,,185.10677487499197,185.10677487499197,185.10677487499197,-0.0003261250094510615,51792,0.03111111111111111,-0.41444444444444445,1,0,0,cont_button,187.74006095799268,188.74063679098617,,,,,,,,,,,,,,,,,,,,,,,,,,,,,,,,,,,,,,,,,,,,,,,,,001,2025-07-28_08h20.05.971,CGTriskyDMtask,2022.2.1,59.97196322882325,
,,,,,4,,,,,,,,,0,3,3,3,0,0,0,0,,,,,,,,,,,,,,,,,,,,,,,,,,,,,,,,,,,,,,,,,,,,,,,,,,,,,,,,,188.74063679098617,189.74037945800228,189.74037945800228,190.7410629579972,"[4, 2, 8, 9, 3, 6]",,,,,,,,,,,,,,,,,,,,,,,,,,,,,,,,,,,,,,,,,,,,,,,,,,,,,,,,,,,,,,001,2025-07-28_08h20.05.971,CGTriskyDMtask,2022.2.1,59.97196322882325,
,,,,,4,,,,,,,,,0,3,3,3,1,0,1,0,,,,,,,,,,,,,,,,,,,,,,,,,,,,,,,,,,,,,,,,,,,,,,,,,,,,,,,,,190.7410629579972,191.74045433299034,191.74045433299034,192.74117987498175,"[4, 2, 8, 9, 3, 6]",,,,,,,,,,,,,,,,,,,,,,,,,,,,,,,,,,,,,,,,,,,,,,,,,,,,,,,,,,,,,,001,2025-07-28_08h20.05.971,CGTriskyDMtask,2022.2.1,59.97196322882325,
,,,,,4,,,,,,,,,0,3,3,3,2,0,2,0,,,,,,,,,,,,,,,,,,,,,,,,,,,,,,,,,,,,,,,,,,,,,,,,,,,,,,,,,192.74117987498175,193.72399695799686,193.74049187498167,194.7239382909902,"[4, 2, 8, 9, 3, 6]",,,,,,,,,,,,,,,,,,,,,,,,,,,,,,,,,,,,,,,,,,,,,,,,,,,,,,,,,,,,,,001,2025-07-28_08h20.05.971,CGTriskyDMtask,2022.2.1,59.97196322882325,
,,,,,4,,,,,,,,,0,3,3,3,3,0,3,0,,,,,,,,,,,,,,,,,,,,,,,,,,,,,,,,,,,,,,,,,,,,,,,,,,,,,,,,,194.74141733298893,195.72390912499395,195.74055162500008,196.72394016600447,"[4, 2, 8, 9, 3, 6]",,,,,,,,,,,,,,,,,,,,,,,,,,,,,,,,,,,,,,,,,,,,,,,,,,,,,,,,,,,,,,001,2025-07-28_08h20.05.971,CGTriskyDMtask,2022.2.1,59.97196322882325,
,,,,,4,,,,,,,,,0,3,3,3,4,0,4,0,,,,,,,,,,,,,,,,,,,,,,,,,,,,,,,,,,,,,,,,,,,,,,,,,,,,,,,,,196.72394016600447,197.72417537498404,197.72417537498404,198.72376354099833,"[4, 2, 8, 9, 3, 6]",,,,,,,,,,,,,,,,,,,,,,,,,,,,,,,,,,,,,,,,,,,,,,,,,,,,,,,,,,,,,,001,2025-07-28_08h20.05.971,CGTriskyDMtask,2022.2.1,59.97196322882325,
,,,,,4,,,,,,,,,0,3,3,3,5,0,5,0,,,,,,,,,,,,,,,,,,,,,,,,,,,,,,,,,,,,,,,,,,,,,,,,,,,,,,,,,198.72376354099833,199.72461599999224,199.72461599999224,200.72474983299617,"[4, 2, 8, 9, 3, 6]",,,,,,,,,,,,,,,,,,,,,,,,,,,,,,,,,,,,,,,,,,,,,,,,,,,,,,,,,,,,,,001,2025-07-28_08h20.05.971,CGTriskyDMtask,2022.2.1,59.97196322882325,
,,,,,4,,,,,,,,,0,3,3,3,,,,,,,,,,,,,,,,,,,,,,,,,,,,,,,,,,,,,,,,,,,,,,,,1,,,,,,,,,,,,,,,,,,200.72474983299617,200.72474983299617,200.72474983299617,8.862500544637442e-05,428936,0.03111111111111111,-0.41444444444444445,1,0,0,cont_button,204.29109954100568,205.29088058299385,,,,,,,,,,,,,,,,,,,,,,,,,,,,,,,,,,,,,,,,,,,,,,,,,001,2025-07-28_08h20.05.971,CGTriskyDMtask,2022.2.1,59.97196322882325,
,,,,,5,,,,,,,,,0,4,4,4,0,0,0,0,,,,,,,,,,,,,,,,,,,,,,,,,,,,,,,,,,,,,,,,,,,,,,,,,,,,,,,,,205.29088058299385,206.2910717499908,206.2910717499908,207.29108749999432,"[5, 3, 6, 8, 2, 7, 4]",,,,,,,,,,,,,,,,,,,,,,,,,,,,,,,,,,,,,,,,,,,,,,,,,,,,,,,,,,,,,,001,2025-07-28_08h20.05.971,CGTriskyDMtask,2022.2.1,59.97196322882325,
,,,,,5,,,,,,,,,0,4,4,4,1,0,1,0,,,,,,,,,,,,,,,,,,,,,,,,,,,,,,,,,,,,,,,,,,,,,,,,,,,,,,,,,207.29108749999432,208.29112554099993,208.29112554099993,209.29131999998935,"[5, 3, 6, 8, 2, 7, 4]",,,,,,,,,,,,,,,,,,,,,,,,,,,,,,,,,,,,,,,,,,,,,,,,,,,,,,,,,,,,,,001,2025-07-28_08h20.05.971,CGTriskyDMtask,2022.2.1,59.97196322882325,
,,,,,5,,,,,,,,,0,4,4,4,2,0,2,0,,,,,,,,,,,,,,,,,,,,,,,,,,,,,,,,,,,,,,,,,,,,,,,,,,,,,,,,,209.29131999998935,210.27459729099064,210.29115233299672,211.2745391659846,"[5, 3, 6, 8, 2, 7, 4]",,,,,,,,,,,,,,,,,,,,,,,,,,,,,,,,,,,,,,,,,,,,,,,,,,,,,,,,,,,,,,001,2025-07-28_08h20.05.971,CGTriskyDMtask,2022.2.1,59.97196322882325,
,,,,,5,,,,,,,,,0,4,4,4,3,0,3,0,,,,,,,,,,,,,,,,,,,,,,,,,,,,,,,,,,,,,,,,,,,,,,,,,,,,,,,,,211.2745391659846,212.27505649998784,212.27505649998784,213.27554291600245,"[5, 3, 6, 8, 2, 7, 4]",,,,,,,,,,,,,,,,,,,,,,,,,,,,,,,,,,,,,,,,,,,,,,,,,,,,,,,,,,,,,,001,2025-07-28_08h20.05.971,CGTriskyDMtask,2022.2.1,59.97196322882325,
,,,,,5,,,,,,,,,0,4,4,4,4,0,4,0,,,,,,,,,,,,,,,,,,,,,,,,,,,,,,,,,,,,,,,,,,,,,,,,,,,,,,,,,213.27554291600245,214.275424958003,214.275424958003,215.27551945799496,"[5, 3, 6, 8, 2, 7, 4]",,,,,,,,,,,,,,,,,,,,,,,,,,,,,,,,,,,,,,,,,,,,,,,,,,,,,,,,,,,,,,001,2025-07-28_08h20.05.971,CGTriskyDMtask,2022.2.1,59.97196322882325,
,,,,,5,,,,,,,,,0,4,4,4,5,0,5,0,,,,,,,,,,,,,,,,,,,,,,,,,,,,,,,,,,,,,,,,,,,,,,,,,,,,,,,,,215.27551945799496,216.27474333299324,216.27474333299324,217.2750822499802,"[5, 3, 6, 8, 2, 7, 4]",,,,,,,,,,,,,,,,,,,,,,,,,,,,,,,,,,,,,,,,,,,,,,,,,,,,,,,,,,,,,,001,2025-07-28_08h20.05.971,CGTriskyDMtask,2022.2.1,59.97196322882325,
,,,,,5,,,,,,,,,0,4,4,4,6,0,6,0,,,,,,,,,,,,,,,,,,,,,,,,,,,,,,,,,,,,,,,,,,,,,,,,,,,,,,,,,217.2750822499802,218.27491045798524,218.27491045798524,219.27480470799492,"[5, 3, 6, 8, 2, 7, 4]",,,,,,,,,,,,,,,,,,,,,,,,,,,,,,,,,,,,,,,,,,,,,,,,,,,,,,,,,,,,,,001,2025-07-28_08h20.05.971,CGTriskyDMtask,2022.2.1,59.97196322882325,
,,,,,5,,,,,,,,,0,4,4,4,,,,,,,,,,,,,,,,,,,,,,,,,,,,,,,,,,,,,,,,,,,,,,,,1,,,,,,,,,,,,,,,,,,219.27480470799492,219.27480470799492,219.27480470799492,-0.00044554201303981245,5368274,0.03111111111111111,-0.41444444444444445,1,0,0,cont_button,225.64174962500692,226.64226362499176,,,,,,,,,,,,,,,,,,,,,,,,,,,,,,,,,,,,,,,,,,,,,,,,,001,2025-07-28_08h20.05.971,CGTriskyDMtask,2022.2.1,59.97196322882325,
,,,,,6,,,,,,,,,0,5,5,5,0,0,0,0,,,,,,,,,,,,,,,,,,,,,,,,,,,,,,,,,,,,,,,,,,,,,,,,,,,,,,,,,226.64226362499176,227.64213808299974,227.64213808299974,228.64175208300003,"[3, 2, 5, 4, 6, 7, 1, 9]",,,,,,,,,,,,,,,,,,,,,,,,,,,,,,,,,,,,,,,,,,,,,,,,,,,,,,,,,,,,,,001,2025-07-28_08h20.05.971,CGTriskyDMtask,2022.2.1,59.97196322882325,
,,,,,6,,,,,,,,,0,5,5,5,1,0,1,0,,,,,,,,,,,,,,,,,,,,,,,,,,,,,,,,,,,,,,,,,,,,,,,,,,,,,,,,,228.64175208300003,229.626352124993,229.6426785409858,230.62515437498223,"[3, 2, 5, 4, 6, 7, 1, 9]",,,,,,,,,,,,,,,,,,,,,,,,,,,,,,,,,,,,,,,,,,,,,,,,,,,,,,,,,,,,,,001,2025-07-28_08h20.05.971,CGTriskyDMtask,2022.2.1,59.97196322882325,
,,,,,6,,,,,,,,,0,5,5,5,2,0,2,0,,,,,,,,,,,,,,,,,,,,,,,,,,,,,,,,,,,,,,,,,,,,,,,,,,,,,,,,,230.62515437498223,231.64195724998717,231.62528583299718,232.64218804100528,"[3, 2, 5, 4, 6, 7, 1, 9]",,,,,,,,,,,,,,,,,,,,,,,,,,,,,,,,,,,,,,,,,,,,,,,,,,,,,,,,,,,,,,001,2025-07-28_08h20.05.971,CGTriskyDMtask,2022.2.1,59.97196322882325,
,,,,,6,,,,,,,,,0,5,5,5,3,0,3,0,,,,,,,,,,,,,,,,,,,,,,,,,,,,,,,,,,,,,,,,,,,,,,,,,,,,,,,,,232.64218804100528,233.62547491598525,233.64195391599787,234.62612775000161,"[3, 2, 5, 4, 6, 7, 1, 9]",,,,,,,,,,,,,,,,,,,,,,,,,,,,,,,,,,,,,,,,,,,,,,,,,,,,,,,,,,,,,,001,2025-07-28_08h20.05.971,CGTriskyDMtask,2022.2.1,59.97196322882325,
,,,,,6,,,,,,,,,0,5,5,5,4,0,4,0,,,,,,,,,,,,,,,,,,,,,,,,,,,,,,,,,,,,,,,,,,,,,,,,,,,,,,,,,234.62612775000161,235.62616316598724,235.62616316598724,236.62613512499956,"[3, 2, 5, 4, 6, 7, 1, 9]",,,,,,,,,,,,,,,,,,,,,,,,,,,,,,,,,,,,,,,,,,,,,,,,,,,,,,,,,,,,,,001,2025-07-28_08h20.05.971,CGTriskyDMtask,2022.2.1,59.97196322882325,
,,,,,6,,,,,,,,,0,5,5,5,5,0,5,0,,,,,,,,,,,,,,,,,,,,,,,,,,,,,,,,,,,,,,,,,,,,,,,,,,,,,,,,,236.62613512499956,237.62595849999343,237.62595849999343,238.6260997079953,"[3, 2, 5, 4, 6, 7, 1, 9]",,,,,,,,,,,,,,,,,,,,,,,,,,,,,,,,,,,,,,,,,,,,,,,,,,,,,,,,,,,,,,001,2025-07-28_08h20.05.971,CGTriskyDMtask,2022.2.1,59.97196322882325,
,,,,,6,,,,,,,,,0,5,5,5,6,0,6,0,,,,,,,,,,,,,,,,,,,,,,,,,,,,,,,,,,,,,,,,,,,,,,,,,,,,,,,,,238.6260997079953,239.6262294999906,239.6262294999906,240.62647808299516,"[3, 2, 5, 4, 6, 7, 1, 9]",,,,,,,,,,,,,,,,,,,,,,,,,,,,,,,,,,,,,,,,,,,,,,,,,,,,,,,,,,,,,,001,2025-07-28_08h20.05.971,CGTriskyDMtask,2022.2.1,59.97196322882325,
,,,,,6,,,,,,,,,0,5,5,5,7,0,7,0,,,,,,,,,,,,,,,,,,,,,,,,,,,,,,,,,,,,,,,,,,,,,,,,,,,,,,,,,240.62647808299516,241.62654862500494,241.62654862500494,242.62641404100577,"[3, 2, 5, 4, 6, 7, 1, 9]",,,,,,,,,,,,,,,,,,,,,,,,,,,,,,,,,,,,,,,,,,,,,,,,,,,,,,,,,,,,,,001,2025-07-28_08h20.05.971,CGTriskyDMtask,2022.2.1,59.97196322882325,
,,,,,6,,,,,,,,,0,5,5,5,,,,,,,,,,,,,,,,,,,,,,,,,,,,,,,,,,,,,,,,,,,,,,,,0,,,,,,,,,,,,,,,,,,242.62641404100577,242.62641404100577,242.62641404100577,0.00021550001110881567,3254719,0.03111111111111111,-0.41444444444444445,1,0,0,cont_button,247.15938312499202,248.15963570799795,,,,,,,,,,,,,,,,,,,,,,,,,,,,,,,,,,,,,,,,,,,,,,,,,001,2025-07-28_08h20.05.971,CGTriskyDMtask,2022.2.1,59.97196322882325,
,,,,,7,,,,,,,,,0,6,6,6,0,0,0,0,,,,,,,,,,,,,,,,,,,,,,,,,,,,,,,,,,,,,,,,,,,,,,,,,,,,,,,,,248.15963570799795,249.15925525000785,249.15925525000785,250.159884875,"[3, 5, 7, 4, 6, 8, 2, 9]",,,,,,,,,,,,,,,,,,,,,,,,,,,,,,,,,,,,,,,,,,,,,,,,,,,,,,,,,,,,,,001,2025-07-28_08h20.05.971,CGTriskyDMtask,2022.2.1,59.97196322882325,
,,,,,7,,,,,,,,,0,6,6,6,1,0,1,0,,,,,,,,,,,,,,,,,,,,,,,,,,,,,,,,,,,,,,,,,,,,,,,,,,,,,,,,,250.159884875,251.15931241598446,251.15931241598446,252.15952733298764,"[3, 5, 7, 4, 6, 8, 2, 9]",,,,,,,,,,,,,,,,,,,,,,,,,,,,,,,,,,,,,,,,,,,,,,,,,,,,,,,,,,,,,,001,2025-07-28_08h20.05.971,CGTriskyDMtask,2022.2.1,59.97196322882325,
,,,,,7,,,,,,,,,0,6,6,6,2,0,2,0,,,,,,,,,,,,,,,,,,,,,,,,,,,,,,,,,,,,,,,,,,,,,,,,,,,,,,,,,252.15952733298764,253.14282224999624,253.1595640410087,254.14311933299177,"[3, 5, 7, 4, 6, 8, 2, 9]",,,,,,,,,,,,,,,,,,,,,,,,,,,,,,,,,,,,,,,,,,,,,,,,,,,,,,,,,,,,,,001,2025-07-28_08h20.05.971,CGTriskyDMtask,2022.2.1,59.97196322882325,
,,,,,7,,,,,,,,,0,6,6,6,3,0,3,0,,,,,,,,,,,,,,,,,,,,,,,,,,,,,,,,,,,,,,,,,,,,,,,,,,,,,,,,,254.14311933299177,255.1431036249851,255.1431036249851,256.14312774999416,"[3, 5, 7, 4, 6, 8, 2, 9]",,,,,,,,,,,,,,,,,,,,,,,,,,,,,,,,,,,,,,,,,,,,,,,,,,,,,,,,,,,,,,001,2025-07-28_08h20.05.971,CGTriskyDMtask,2022.2.1,59.97196322882325,
,,,,,7,,,,,,,,,0,6,6,6,4,0,4,0,,,,,,,,,,,,,,,,,,,,,,,,,,,,,,,,,,,,,,,,,,,,,,,,,,,,,,,,,256.14312774999416,257.143315541005,257.143315541005,258.14372604098753,"[3, 5, 7, 4, 6, 8, 2, 9]",,,,,,,,,,,,,,,,,,,,,,,,,,,,,,,,,,,,,,,,,,,,,,,,,,,,,,,,,,,,,,001,2025-07-28_08h20.05.971,CGTriskyDMtask,2022.2.1,59.97196322882325,
,,,,,7,,,,,,,,,0,6,6,6,5,0,5,0,,,,,,,,,,,,,,,,,,,,,,,,,,,,,,,,,,,,,,,,,,,,,,,,,,,,,,,,,258.14372604098753,259.1432255829859,259.1432255829859,260.14415829099016,"[3, 5, 7, 4, 6, 8, 2, 9]",,,,,,,,,,,,,,,,,,,,,,,,,,,,,,,,,,,,,,,,,,,,,,,,,,,,,,,,,,,,,,001,2025-07-28_08h20.05.971,CGTriskyDMtask,2022.2.1,59.97196322882325,
,,,,,7,,,,,,,,,0,6,6,6,6,0,6,0,,,,,,,,,,,,,,,,,,,,,,,,,,,,,,,,,,,,,,,,,,,,,,,,,,,,,,,,,260.14415829099016,261.1439476249798,261.1439476249798,262.14395483297994,"[3, 5, 7, 4, 6, 8, 2, 9]",,,,,,,,,,,,,,,,,,,,,,,,,,,,,,,,,,,,,,,,,,,,,,,,,,,,,,,,,,,,,,001,2025-07-28_08h20.05.971,CGTriskyDMtask,2022.2.1,59.97196322882325,
,,,,,7,,,,,,,,,0,6,6,6,7,0,7,0,,,,,,,,,,,,,,,,,,,,,,,,,,,,,,,,,,,,,,,,,,,,,,,,,,,,,,,,,262.14395483297994,263.14369991599233,263.14369991599233,264.1437102500058,"[3, 5, 7, 4, 6, 8, 2, 9]",,,,,,,,,,,,,,,,,,,,,,,,,,,,,,,,,,,,,,,,,,,,,,,,,,,,,,,,,,,,,,001,2025-07-28_08h20.05.971,CGTriskyDMtask,2022.2.1,59.97196322882325,
,,,,,7,,,,,,,,,0,6,6,6,,,,,,,,,,,,,,,,,,,,,,,,,,,,,,,,,,,,,,,,,,,,,,,,0,,,,,,,,,,,,,,,,,,264.1437102500058,264.1437102500058,264.1437102500058,-6.00829953327775e-05,35476829,0.03111111111111111,-0.41444444444444445,1,0,0,cont_button,272.6276958749804,273.6271613329882,,,,,,,,,,,,,,,,,,,,,,,,,,,,,,,,,,,,,,,,,,,,,,,,,001,2025-07-28_08h20.05.971,CGTriskyDMtask,2022.2.1,59.97196322882325,
,,,,,8,,,,,,,,,0,7,7,7,0,0,0,0,,,,,,,,,,,,,,,,,,,,,,,,,,,,,,,,,,,,,,,,,,,,,,,,,,,,,,,,,273.6271613329882,274.61043249999057,274.62695016598445,275.61044416599907,"[6, 2, 5, 9, 3, 1, 8]",,,,,,,,,,,,,,,,,,,,,,,,,,,,,,,,,,,,,,,,,,,,,,,,,,,,,,,,,,,,,,001,2025-07-28_08h20.05.971,CGTriskyDMtask,2022.2.1,59.97196322882325,
,,,,,8,,,,,,,,,0,7,7,7,1,0,1,0,,,,,,,,,,,,,,,,,,,,,,,,,,,,,,,,,,,,,,,,,,,,,,,,,,,,,,,,,275.6275318749831,276.6104715830006,276.62763866598834,277.61073070799466,"[6, 2, 5, 9, 3, 1, 8]",,,,,,,,,,,,,,,,,,,,,,,,,,,,,,,,,,,,,,,,,,,,,,,,,,,,,,,,,,,,,,001,2025-07-28_08h20.05.971,CGTriskyDMtask,2022.2.1,59.97196322882325,
,,,,,8,,,,,,,,,0,7,7,7,2,0,2,0,,,,,,,,,,,,,,,,,,,,,,,,,,,,,,,,,,,,,,,,,,,,,,,,,,,,,,,,,277.61073070799466,278.61119958298514,278.61119958298514,279.61066541599575,"[6, 2, 5, 9, 3, 1, 8]",,,,,,,,,,,,,,,,,,,,,,,,,,,,,,,,,,,,,,,,,,,,,,,,,,,,,,,,,,,,,,001,2025-07-28_08h20.05.971,CGTriskyDMtask,2022.2.1,59.97196322882325,
,,,,,8,,,,,,,,,0,7,7,7,3,0,3,0,,,,,,,,,,,,,,,,,,,,,,,,,,,,,,,,,,,,,,,,,,,,,,,,,,,,,,,,,279.61066541599575,280.6111172079982,280.6111172079982,281.6105845409911,"[6, 2, 5, 9, 3, 1, 8]",,,,,,,,,,,,,,,,,,,,,,,,,,,,,,,,,,,,,,,,,,,,,,,,,,,,,,,,,,,,,,001,2025-07-28_08h20.05.971,CGTriskyDMtask,2022.2.1,59.97196322882325,
,,,,,8,,,,,,,,,0,7,7,7,4,0,4,0,,,,,,,,,,,,,,,,,,,,,,,,,,,,,,,,,,,,,,,,,,,,,,,,,,,,,,,,,281.6105845409911,282.6110744999896,282.6110744999896,283.6110596249928,"[6, 2, 5, 9, 3, 1, 8]",,,,,,,,,,,,,,,,,,,,,,,,,,,,,,,,,,,,,,,,,,,,,,,,,,,,,,,,,,,,,,001,2025-07-28_08h20.05.971,CGTriskyDMtask,2022.2.1,59.97196322882325,
,,,,,8,,,,,,,,,0,7,7,7,5,0,5,0,,,,,,,,,,,,,,,,,,,,,,,,,,,,,,,,,,,,,,,,,,,,,,,,,,,,,,,,,283.6110596249928,284.6117602909799,284.6117602909799,285.61181920798845,"[6, 2, 5, 9, 3, 1, 8]",,,,,,,,,,,,,,,,,,,,,,,,,,,,,,,,,,,,,,,,,,,,,,,,,,,,,,,,,,,,,,001,2025-07-28_08h20.05.971,CGTriskyDMtask,2022.2.1,59.97196322882325,
,,,,,8,,,,,,,,,0,7,7,7,6,0,6,0,,,,,,,,,,,,,,,,,,,,,,,,,,,,,,,,,,,,,,,,,,,,,,,,,,,,,,,,,285.61181920798845,286.6114968750044,286.6114968750044,287.6118899160065,"[6, 2, 5, 9, 3, 1, 8]",,,,,,,,,,,,,,,,,,,,,,,,,,,,,,,,,,,,,,,,,,,,,,,,,,,,,,,,,,,,,,001,2025-07-28_08h20.05.971,CGTriskyDMtask,2022.2.1,59.97196322882325,
,,,,,8,,,,,,,,,0,7,7,7,,,,,,,,,,,,,,,,,,,,,,,,,,,,,,,,,,,,,,,,,,,,,,,,1,,,,,,,,,,,,,,,,,,287.6118899160065,287.6118899160065,287.6118899160065,0.00040383299347013235,6259318,0.03111111111111111,-0.41444444444444445,1,0,0,cont_button,292.54540445798193,293.54431037500035,,,,,,,,,,,,,,,,,,,,,,,,,,,,,,,,,,,,,,,,,,,,,,,,,001,2025-07-28_08h20.05.971,CGTriskyDMtask,2022.2.1,59.97196322882325,
,,,,,9,,,,,,,,,0,8,8,8,0,0,0,0,,,,,,,,,,,,,,,,,,,,,,,,,,,,,,,,,,,,,,,,,,,,,,,,,,,,,,,,,293.54431037500035,294.54446879099123,294.54446879099123,295.5446401659865,"[4, 9, 7, 1, 8, 5, 6, 2]",,,,,,,,,,,,,,,,,,,,,,,,,,,,,,,,,,,,,,,,,,,,,,,,,,,,,,,,,,,,,,001,2025-07-28_08h20.05.971,CGTriskyDMtask,2022.2.1,59.97196322882325,
,,,,,9,,,,,,,,,0,8,8,8,1,0,1,0,,,,,,,,,,,,,,,,,,,,,,,,,,,,,,,,,,,,,,,,,,,,,,,,,,,,,,,,,295.5446401659865,296.5450178750034,296.5450178750034,297.54494866600726,"[4, 9, 7, 1, 8, 5, 6, 2]",,,,,,,,,,,,,,,,,,,,,,,,,,,,,,,,,,,,,,,,,,,,,,,,,,,,,,,,,,,,,,001,2025-07-28_08h20.05.971,CGTriskyDMtask,2022.2.1,59.97196322882325,
,,,,,9,,,,,,,,,0,8,8,8,2,0,2,0,,,,,,,,,,,,,,,,,,,,,,,,,,,,,,,,,,,,,,,,,,,,,,,,,,,,,,,,,297.54494866600726,298.52884379099123,298.5452034579939,299.5282270409807,"[4, 9, 7, 1, 8, 5, 6, 2]",,,,,,,,,,,,,,,,,,,,,,,,,,,,,,,,,,,,,,,,,,,,,,,,,,,,,,,,,,,,,,001,2025-07-28_08h20.05.971,CGTriskyDMtask,2022.2.1,59.97196322882325,
,,,,,9,,,,,,,,,0,8,8,8,3,0,3,0,,,,,,,,,,,,,,,,,,,,,,,,,,,,,,,,,,,,,,,,,,,,,,,,,,,,,,,,,299.5450514999975,300.5448266250023,300.5448266250023,301.5449679160083,"[4, 9, 7, 1, 8, 5, 6, 2]",,,,,,,,,,,,,,,,,,,,,,,,,,,,,,,,,,,,,,,,,,,,,,,,,,,,,,,,,,,,,,001,2025-07-28_08h20.05.971,CGTriskyDMtask,2022.2.1,59.97196322882325,
,,,,,9,,,,,,,,,0,8,8,8,4,0,4,0,,,,,,,,,,,,,,,,,,,,,,,,,,,,,,,,,,,,,,,,,,,,,,,,,,,,,,,,,301.5449679160083,302.52873916598037,302.5455299159803,303.5283401249908,"[4, 9, 7, 1, 8, 5, 6, 2]",,,,,,,,,,,,,,,,,,,,,,,,,,,,,,,,,,,,,,,,,,,,,,,,,,,,,,,,,,,,,,001,2025-07-28_08h20.05.971,CGTriskyDMtask,2022.2.1,59.97196322882325,
,,,,,9,,,,,,,,,0,8,8,8,5,0,5,0,,,,,,,,,,,,,,,,,,,,,,,,,,,,,,,,,,,,,,,,,,,,,,,,,,,,,,,,,303.5452088750026,304.54518179100705,304.54518179100705,305.5449562499998,"[4, 9, 7, 1, 8, 5, 6, 2]",,,,,,,,,,,,,,,,,,,,,,,,,,,,,,,,,,,,,,,,,,,,,,,,,,,,,,,,,,,,,,001,2025-07-28_08h20.05.971,CGTriskyDMtask,2022.2.1,59.97196322882325,
,,,,,9,,,,,,,,,0,8,8,8,6,0,6,0,,,,,,,,,,,,,,,,,,,,,,,,,,,,,,,,,,,,,,,,,,,,,,,,,,,,,,,,,305.5449562499998,306.5451627080038,306.5451627080038,307.5465235830052,"[4, 9, 7, 1, 8, 5, 6, 2]",,,,,,,,,,,,,,,,,,,,,,,,,,,,,,,,,,,,,,,,,,,,,,,,,,,,,,,,,,,,,,001,2025-07-28_08h20.05.971,CGTriskyDMtask,2022.2.1,59.97196322882325,
,,,,,9,,,,,,,,,0,8,8,8,7,0,7,0,,,,,,,,,,,,,,,,,,,,,,,,,,,,,,,,,,,,,,,,,,,,,,,,,,,,,,,,,307.5465235830052,308.52917758299736,308.5456123329932,309.5287082080031,"[4, 9, 7, 1, 8, 5, 6, 2]",,,,,,,,,,,,,,,,,,,,,,,,,,,,,,,,,,,,,,,,,,,,,,,,,,,,,,,,,,,,,,001,2025-07-28_08h20.05.971,CGTriskyDMtask,2022.2.1,59.97196322882325,
,,,,,9,,,,,,,,,0,8,8,8,,,,,,,,,,,,,,,,,,,,,,,,,,,,,,,,,,,,,,,,,,,,,,,,0,,,,,,,,,,,,,,,,,,309.5453855409869,309.5453855409869,309.5453855409869,0.015626250009518117,49178565,0.03111111111111111,-0.41444444444444445,1,0,0,cont_button,318.7622058329871,319.7623727500031,,,,,,,,,,,,,,,,,,,,,,,,,,,,,,,,,,,,,,,,,,,,,,,,,001,2025-07-28_08h20.05.971,CGTriskyDMtask,2022.2.1,59.97196322882325,
,,,,,10,,,,,,,,,0,9,9,9,0,0,0,0,,,,,,,,,,,,,,,,,,,,,,,,,,,,,,,,,,,,,,,,,,,,,,,,,,,,,,,,,319.7623727500031,320.7466811249906,320.76324858298176,321.7467342079908,"[1, 6, 2, 5, 4, 8, 7, 9]",,,,,,,,,,,,,,,,,,,,,,,,,,,,,,,,,,,,,,,,,,,,,,,,,,,,,,,,,,,,,,001,2025-07-28_08h20.05.971,CGTriskyDMtask,2022.2.1,59.97196322882325,
,,,,,10,,,,,,,,,0,9,9,9,1,0,1,0,,,,,,,,,,,,,,,,,,,,,,,,,,,,,,,,,,,,,,,,,,,,,,,,,,,,,,,,,321.7467342079908,322.746452708001,322.746452708001,323.74651420800365,"[1, 6, 2, 5, 4, 8, 7, 9]",,,,,,,,,,,,,,,,,,,,,,,,,,,,,,,,,,,,,,,,,,,,,,,,,,,,,,,,,,,,,,001,2025-07-28_08h20.05.971,CGTriskyDMtask,2022.2.1,59.97196322882325,
,,,,,10,,,,,,,,,0,9,9,9,2,0,2,0,,,,,,,,,,,,,,,,,,,,,,,,,,,,,,,,,,,,,,,,,,,,,,,,,,,,,,,,,323.74651420800365,324.76278766599717,324.74600945800194,325.7626175409823,"[1, 6, 2, 5, 4, 8, 7, 9]",,,,,,,,,,,,,,,,,,,,,,,,,,,,,,,,,,,,,,,,,,,,,,,,,,,,,,,,,,,,,,001,2025-07-28_08h20.05.971,CGTriskyDMtask,2022.2.1,59.97196322882325,
,,,,,10,,,,,,,,,0,9,9,9,3,0,3,0,,,,,,,,,,,,,,,,,,,,,,,,,,,,,,,,,,,,,,,,,,,,,,,,,,,,,,,,,325.7626175409823,326.74613399998634,326.76282054098556,327.7461079999921,"[1, 6, 2, 5, 4, 8, 7, 9]",,,,,,,,,,,,,,,,,,,,,,,,,,,,,,,,,,,,,,,,,,,,,,,,,,,,,,,,,,,,,,001,2025-07-28_08h20.05.971,CGTriskyDMtask,2022.2.1,59.97196322882325,
,,,,,10,,,,,,,,,0,9,9,9,4,0,4,0,,,,,,,,,,,,,,,,,,,,,,,,,,,,,,,,,,,,,,,,,,,,,,,,,,,,,,,,,327.76295495798695,328.7625857910025,328.7625857910025,329.762915875006,"[1, 6, 2, 5, 4, 8, 7, 9]",,,,,,,,,,,,,,,,,,,,,,,,,,,,,,,,,,,,,,,,,,,,,,,,,,,,,,,,,,,,,,001,2025-07-28_08h20.05.971,CGTriskyDMtask,2022.2.1,59.97196322882325,
,,,,,10,,,,,,,,,0,9,9,9,5,0,5,0,,,,,,,,,,,,,,,,,,,,,,,,,,,,,,,,,,,,,,,,,,,,,,,,,,,,,,,,,329.762915875006,330.7459941660054,330.76282262499444,331.74645762500586,"[1, 6, 2, 5, 4, 8, 7, 9]",,,,,,,,,,,,,,,,,,,,,,,,,,,,,,,,,,,,,,,,,,,,,,,,,,,,,,,,,,,,,,001,2025-07-28_08h20.05.971,CGTriskyDMtask,2022.2.1,59.97196322882325,
,,,,,10,,,,,,,,,0,9,9,9,6,0,6,0,,,,,,,,,,,,,,,,,,,,,,,,,,,,,,,,,,,,,,,,,,,,,,,,,,,,,,,,,331.74645762500586,332.7462287909875,332.7462287909875,333.74704474999453,"[1, 6, 2, 5, 4, 8, 7, 9]",,,,,,,,,,,,,,,,,,,,,,,,,,,,,,,,,,,,,,,,,,,,,,,,,,,,,,,,,,,,,,001,2025-07-28_08h20.05.971,CGTriskyDMtask,2022.2.1,59.97196322882325,
,,,,,10,,,,,,,,,0,9,9,9,7,0,7,0,,,,,,,,,,,,,,,,,,,,,,,,,,,,,,,,,,,,,,,,,,,,,,,,,,,,,,,,,333.74704474999453,334.7468287500087,334.7468287500087,335.7471252499963,"[1, 6, 2, 5, 4, 8, 7, 9]",,,,,,,,,,,,,,,,,,,,,,,,,,,,,,,,,,,,,,,,,,,,,,,,,,,,,,,,,,,,,,001,2025-07-28_08h20.05.971,CGTriskyDMtask,2022.2.1,59.97196322882325,
,,,,,10,,,,,,,,,0,9,9,9,,,,,,,,,,,,,,,,,,,,,,,,,,,,,,,,,,,,,,,,,,,,,,,,0,,,,,,,,,,,,,,,,,,335.7471252499963,335.7471252499963,335.7471252499963,-0.00010866599041037261,154629175,0.03111111111111111,-0.41444444444444445,1,0,0,cont_button,341.8640808329801,342.8632116249937,,,,,,,,,,,,,,,,,,,,,,,,,,,,,,,,,,,,,,,,,,,,,,,,,001,2025-07-28_08h20.05.971,CGTriskyDMtask,2022.2.1,59.97196322882325,
,,,,,11,,,,,,,,,0,10,10,10,0,0,0,0,,,,,,,,,,,,,,,,,,,,,,,,,,,,,,,,,,,,,,,,,,,,,,,,,,,,,,,,,342.8632116249937,343.86338587498176,343.86338587498176,344.8634182079986,"[4, 7, 9, 8, 2, 1, 3]",,,,,,,,,,,,,,,,,,,,,,,,,,,,,,,,,,,,,,,,,,,,,,,,,,,,,,,,,,,,,,001,2025-07-28_08h20.05.971,CGTriskyDMtask,2022.2.1,59.97196322882325,
,,,,,11,,,,,,,,,0,10,10,10,1,0,1,0,,,,,,,,,,,,,,,,,,,,,,,,,,,,,,,,,,,,,,,,,,,,,,,,,,,,,,,,,344.8634182079986,345.84695820798515,345.8632913749898,346.8465575829905,"[4, 7, 9, 8, 2, 1, 3]",,,,,,,,,,,,,,,,,,,,,,,,,,,,,,,,,,,,,,,,,,,,,,,,,,,,,,,,,,,,,,001,2025-07-28_08h20.05.971,CGTriskyDMtask,2022.2.1,59.97196322882325,
,,,,,11,,,,,,,,,0,10,10,10,2,0,2,0,,,,,,,,,,,,,,,,,,,,,,,,,,,,,,,,,,,,,,,,,,,,,,,,,,,,,,,,,346.8465575829905,347.8468183329969,347.8468183329969,348.8480808750028,"[4, 7, 9, 8, 2, 1, 3]",,,,,,,,,,,,,,,,,,,,,,,,,,,,,,,,,,,,,,,,,,,,,,,,,,,,,,,,,,,,,,001,2025-07-28_08h20.05.971,CGTriskyDMtask,2022.2.1,59.97196322882325,
,,,,,11,,,,,,,,,0,10,10,10,3,0,3,0,,,,,,,,,,,,,,,,,,,,,,,,,,,,,,,,,,,,,,,,,,,,,,,,,,,,,,,,,348.8480808750028,349.8469501250074,349.86365316598676,350.8469357909926,"[4, 7, 9, 8, 2, 1, 3]",,,,,,,,,,,,,,,,,,,,,,,,,,,,,,,,,,,,,,,,,,,,,,,,,,,,,,,,,,,,,,001,2025-07-28_08h20.05.971,CGTriskyDMtask,2022.2.1,59.97196322882325,
,,,,,11,,,,,,,,,0,10,10,10,4,0,4,0,,,,,,,,,,,,,,,,,,,,,,,,,,,,,,,,,,,,,,,,,,,,,,,,,,,,,,,,,350.8469357909926,351.8473909999884,351.8473909999884,352.8471803329885,"[4, 7, 9, 8, 2, 1, 3]",,,,,,,,,,,,,,,,,,,,,,,,,,,,,,,,,,,,,,,,,,,,,,,,,,,,,,,,,,,,,,001,2025-07-28_08h20.05.971,CGTriskyDMtask,2022.2.1,59.97196322882325,
,,,,,11,,,,,,,,,0,10,10,10,5,0,5,0,,,,,,,,,,,,,,,,,,,,,,,,,,,,,,,,,,,,,,,,,,,,,,,,,,,,,,,,,352.8471803329885,353.8474837499962,353.8474837499962,354.8474695000041,"[4, 7, 9, 8, 2, 1, 3]",,,,,,,,,,,,,,,,,,,,,,,,,,,,,,,,,,,,,,,,,,,,,,,,,,,,,,,,,,,,,,001,2025-07-28_08h20.05.971,CGTriskyDMtask,2022.2.1,59.97196322882325,
,,,,,11,,,,,,,,,0,10,10,10,6,0,6,0,,,,,,,,,,,,,,,,,,,,,,,,,,,,,,,,,,,,,,,,,,,,,,,,,,,,,,,,,354.8474695000041,355.8479537079984,355.8479537079984,356.8481612500036,"[4, 7, 9, 8, 2, 1, 3]",,,,,,,,,,,,,,,,,,,,,,,,,,,,,,,,,,,,,,,,,,,,,,,,,,,,,,,,,,,,,,001,2025-07-28_08h20.05.971,CGTriskyDMtask,2022.2.1,59.97196322882325,
,,,,,11,,,,,,,,,0,10,10,10,,,,,,,,,,,,,,,,,,,,,,,,,,,,,,,,,,,,,,,,,,,,,,,,0,,,,,,,,,,,,,,,,,,356.8481612500036,356.8481612500036,356.8481612500036,0.0004176250076852739,4798423,0.03111111111111111,-0.41444444444444445,1,0,0,cont_button,364.08140983298654,365.08103941599256,,,,,,,,,,,,,,,,,,,,,,,,,,,,,,,,,,,,,,,,,,,,,,,,,001,2025-07-28_08h20.05.971,CGTriskyDMtask,2022.2.1,59.97196322882325,
,,,,,12,,,,,,,,,0,11,11,11,0,0,0,0,,,,,,,,,,,,,,,,,,,,,,,,,,,,,,,,,,,,,,,,,,,,,,,,,,,,,,,,,365.08103941599256,366.08089374998235,366.08089374998235,367.0810240409919,"[5, 2, 4, 3, 8, 9, 6]",,,,,,,,,,,,,,,,,,,,,,,,,,,,,,,,,,,,,,,,,,,,,,,,,,,,,,,,,,,,,,001,2025-07-28_08h20.05.971,CGTriskyDMtask,2022.2.1,59.97196322882325,
,,,,,12,,,,,,,,,0,11,11,11,1,0,1,0,,,,,,,,,,,,,,,,,,,,,,,,,,,,,,,,,,,,,,,,,,,,,,,,,,,,,,,,,367.0810240409919,368.08092662499985,368.08092662499985,369.0810786249931,"[5, 2, 4, 3, 8, 9, 6]",,,,,,,,,,,,,,,,,,,,,,,,,,,,,,,,,,,,,,,,,,,,,,,,,,,,,,,,,,,,,,001,2025-07-28_08h20.05.971,CGTriskyDMtask,2022.2.1,59.97196322882325,
,,,,,12,,,,,,,,,0,11,11,11,2,0,2,0,,,,,,,,,,,,,,,,,,,,,,,,,,,,,,,,,,,,,,,,,,,,,,,,,,,,,,,,,369.0810786249931,370.0814646660001,370.0814646660001,371.08113362500444,"[5, 2, 4, 3, 8, 9, 6]",,,,,,,,,,,,,,,,,,,,,,,,,,,,,,,,,,,,,,,,,,,,,,,,,,,,,,,,,,,,,,001,2025-07-28_08h20.05.971,CGTriskyDMtask,2022.2.1,59.97196322882325,
,,,,,12,,,,,,,,,0,11,11,11,3,0,3,0,,,,,,,,,,,,,,,,,,,,,,,,,,,,,,,,,,,,,,,,,,,,,,,,,,,,,,,,,371.08113362500444,372.08148804100347,372.08148804100347,373.0813935000042,"[5, 2, 4, 3, 8, 9, 6]",,,,,,,,,,,,,,,,,,,,,,,,,,,,,,,,,,,,,,,,,,,,,,,,,,,,,,,,,,,,,,001,2025-07-28_08h20.05.971,CGTriskyDMtask,2022.2.1,59.97196322882325,
,,,,,12,,,,,,,,,0,11,11,11,4,0,4,0,,,,,,,,,,,,,,,,,,,,,,,,,,,,,,,,,,,,,,,,,,,,,,,,,,,,,,,,,373.0813935000042,374.0811846659926,374.0811846659926,375.081674999994,"[5, 2, 4, 3, 8, 9, 6]",,,,,,,,,,,,,,,,,,,,,,,,,,,,,,,,,,,,,,,,,,,,,,,,,,,,,,,,,,,,,,001,2025-07-28_08h20.05.971,CGTriskyDMtask,2022.2.1,59.97196322882325,
,,,,,12,,,,,,,,,0,11,11,11,5,0,5,0,,,,,,,,,,,,,,,,,,,,,,,,,,,,,,,,,,,,,,,,,,,,,,,,,,,,,,,,,375.081674999994,376.0658831250039,376.0824012499943,377.06557224999415,"[5, 2, 4, 3, 8, 9, 6]",,,,,,,,,,,,,,,,,,,,,,,,,,,,,,,,,,,,,,,,,,,,,,,,,,,,,,,,,,,,,,001,2025-07-28_08h20.05.971,CGTriskyDMtask,2022.2.1,59.97196322882325,
,,,,,12,,,,,,,,,0,11,11,11,6,0,6,0,,,,,,,,,,,,,,,,,,,,,,,,,,,,,,,,,,,,,,,,,,,,,,,,,,,,,,,,,377.06557224999415,378.0658081249858,378.0658081249858,379.0653948329855,"[5, 2, 4, 3, 8, 9, 6]",,,,,,,,,,,,,,,,,,,,,,,,,,,,,,,,,,,,,,,,,,,,,,,,,,,,,,,,,,,,,,001,2025-07-28_08h20.05.971,CGTriskyDMtask,2022.2.1,59.97196322882325,
,,,,,12,,,,,,,,,0,11,11,11,,,,,,,,,,,,,,,,,,,,,,,,,,,,,,,,,,,,,,,,,,,,,,,,0,,,,,,,,,,,,,,,,,,379.0653948329855,379.0653948329855,379.0653948329855,-0.0005409579898696393,5423896,0.03111111111111111,-0.41444444444444445,1,0,0,cont_button,385.23198266598047,386.2317307909834,,,,,,,,,,,,,,,,,,,,,,,,,,,,,,,,,,,,,,,,,,,,,,,,,001,2025-07-28_08h20.05.971,CGTriskyDMtask,2022.2.1,59.97196322882325,
,,,,,13,,,,,,,,,0,12,12,12,0,0,0,0,,,,,,,,,,,,,,,,,,,,,,,,,,,,,,,,,,,,,,,,,,,,,,,,,,,,,,,,,386.2317307909834,387.21518441598164,387.231966249994,388.2153534159879,"[3, 9, 2, 1, 6, 8]",,,,,,,,,,,,,,,,,,,,,,,,,,,,,,,,,,,,,,,,,,,,,,,,,,,,,,,,,,,,,,001,2025-07-28_08h20.05.971,CGTriskyDMtask,2022.2.1,59.97196322882325,
,,,,,13,,,,,,,,,0,12,12,12,1,0,1,0,,,,,,,,,,,,,,,,,,,,,,,,,,,,,,,,,,,,,,,,,,,,,,,,,,,,,,,,,388.2153534159879,389.21594933298184,389.21594933298184,390.2159852499899,"[3, 9, 2, 1, 6, 8]",,,,,,,,,,,,,,,,,,,,,,,,,,,,,,,,,,,,,,,,,,,,,,,,,,,,,,,,,,,,,,001,2025-07-28_08h20.05.971,CGTriskyDMtask,2022.2.1,59.97196322882325,
,,,,,13,,,,,,,,,0,12,12,12,2,0,2,0,,,,,,,,,,,,,,,,,,,,,,,,,,,,,,,,,,,,,,,,,,,,,,,,,,,,,,,,,390.2159852499899,391.23215308299405,391.21518954099156,392.2320114579925,"[3, 9, 2, 1, 6, 8]",,,,,,,,,,,,,,,,,,,,,,,,,,,,,,,,,,,,,,,,,,,,,,,,,,,,,,,,,,,,,,001,2025-07-28_08h20.05.971,CGTriskyDMtask,2022.2.1,59.97196322882325,
,,,,,13,,,,,,,,,0,12,12,12,3,0,3,0,,,,,,,,,,,,,,,,,,,,,,,,,,,,,,,,,,,,,,,,,,,,,,,,,,,,,,,,,392.2320114579925,393.2155825829832,393.2323699159897,394.21551479099435,"[3, 9, 2, 1, 6, 8]",,,,,,,,,,,,,,,,,,,,,,,,,,,,,,,,,,,,,,,,,,,,,,,,,,,,,,,,,,,,,,001,2025-07-28_08h20.05.971,CGTriskyDMtask,2022.2.1,59.97196322882325,
,,,,,13,,,,,,,,,0,12,12,12,4,0,4,0,,,,,,,,,,,,,,,,,,,,,,,,,,,,,,,,,,,,,,,,,,,,,,,,,,,,,,,,,394.21551479099435,395.2154002909956,395.2154002909956,396.2157062079932,"[3, 9, 2, 1, 6, 8]",,,,,,,,,,,,,,,,,,,,,,,,,,,,,,,,,,,,,,,,,,,,,,,,,,,,,,,,,,,,,,001,2025-07-28_08h20.05.971,CGTriskyDMtask,2022.2.1,59.97196322882325,
,,,,,13,,,,,,,,,0,12,12,12,5,0,5,0,,,,,,,,,,,,,,,,,,,,,,,,,,,,,,,,,,,,,,,,,,,,,,,,,,,,,,,,,396.2157062079932,397.21570075000636,397.21570075000636,398.21546591600054,"[3, 9, 2, 1, 6, 8]",,,,,,,,,,,,,,,,,,,,,,,,,,,,,,,,,,,,,,,,,,,,,,,,,,,,,,,,,,,,,,001,2025-07-28_08h20.05.971,CGTriskyDMtask,2022.2.1,59.97196322882325,
,,,,,13,,,,,,,,,0,12,12,12,,,,,,,,,,,,,,,,,,,,,,,,,,,,,,,,,,,,,,,,,,,,,,,,0,,,,,,,,,,,,,,,,,,398.21546591600054,398.21546591600054,398.21546591600054,-0.0007789999945089221,391268,0.03111111111111111,-0.41444444444444445,1,0,0,cont_button,402.7497234159964,403.7491029999801,,,,,,,,,,,,,,,,,,,,,,,,,,,,,,,,,,,,,,,,,,,,,,,,,001,2025-07-28_08h20.05.971,CGTriskyDMtask,2022.2.1,59.97196322882325,
,,,,,14,,,,,,,,,0,13,13,13,0,0,0,0,,,,,,,,,,,,,,,,,,,,,,,,,,,,,,,,,,,,,,,,,,,,,,,,,,,,,,,,,403.7491029999801,404.74933895800496,404.74933895800496,405.7490916249808,"[3, 4, 6, 2, 9, 7]",,,,,,,,,,,,,,,,,,,,,,,,,,,,,,,,,,,,,,,,,,,,,,,,,,,,,,,,,,,,,,001,2025-07-28_08h20.05.971,CGTriskyDMtask,2022.2.1,59.97196322882325,
,,,,,14,,,,,,,,,0,13,13,13,1,0,1,0,,,,,,,,,,,,,,,,,,,,,,,,,,,,,,,,,,,,,,,,,,,,,,,,,,,,,,,,,405.7490916249808,406.7325447909825,406.7492740000016,407.732599415991,"[3, 4, 6, 2, 9, 7]",,,,,,,,,,,,,,,,,,,,,,,,,,,,,,,,,,,,,,,,,,,,,,,,,,,,,,,,,,,,,,001,2025-07-28_08h20.05.971,CGTriskyDMtask,2022.2.1,59.97196322882325,
,,,,,14,,,,,,,,,0,13,13,13,2,0,2,0,,,,,,,,,,,,,,,,,,,,,,,,,,,,,,,,,,,,,,,,,,,,,,,,,,,,,,,,,407.74945454098633,408.73356620798586,408.7492273749958,409.73311779098003,"[3, 4, 6, 2, 9, 7]",,,,,,,,,,,,,,,,,,,,,,,,,,,,,,,,,,,,,,,,,,,,,,,,,,,,,,,,,,,,,,001,2025-07-28_08h20.05.971,CGTriskyDMtask,2022.2.1,59.97196322882325,
,,,,,14,,,,,,,,,0,13,13,13,3,0,3,0,,,,,,,,,,,,,,,,,,,,,,,,,,,,,,,,,,,,,,,,,,,,,,,,,,,,,,,,,409.73311779098003,410.73381091599003,410.73381091599003,411.7336224159808,"[3, 4, 6, 2, 9, 7]",,,,,,,,,,,,,,,,,,,,,,,,,,,,,,,,,,,,,,,,,,,,,,,,,,,,,,,,,,,,,,001,2025-07-28_08h20.05.971,CGTriskyDMtask,2022.2.1,59.97196322882325,
,,,,,14,,,,,,,,,0,13,13,13,4,0,4,0,,,,,,,,,,,,,,,,,,,,,,,,,,,,,,,,,,,,,,,,,,,,,,,,,,,,,,,,,411.7336224159808,412.7332904159848,412.7332904159848,413.7336676660052,"[3, 4, 6, 2, 9, 7]",,,,,,,,,,,,,,,,,,,,,,,,,,,,,,,,,,,,,,,,,,,,,,,,,,,,,,,,,,,,,,001,2025-07-28_08h20.05.971,CGTriskyDMtask,2022.2.1,59.97196322882325,
,,,,,14,,,,,,,,,0,13,13,13,5,0,5,0,,,,,,,,,,,,,,,,,,,,,,,,,,,,,,,,,,,,,,,,,,,,,,,,,,,,,,,,,413.7336676660052,414.7328940409934,414.7328940409934,415.7329079580086,"[3, 4, 6, 2, 9, 7]",,,,,,,,,,,,,,,,,,,,,,,,,,,,,,,,,,,,,,,,,,,,,,,,,,,,,,,,,,,,,,001,2025-07-28_08h20.05.971,CGTriskyDMtask,2022.2.1,59.97196322882325,
,,,,,14,,,,,,,,,0,13,13,13,,,,,,,,,,,,,,,,,,,,,,,,,,,,,,,,,,,,,,,,,,,,,,,,1,,,,,,,,,,,,,,,,,,415.7329079580086,415.7329079580086,415.7329079580086,-0.0007931669824756682,346297,0.03111111111111111,-0.41444444444444445,1,0,0,cont_button,418.8828461249941,419.8833232909965,,,,,,,,,,,,,,,,,,,,,,,,,,,,,,,,,,,,,,,,,,,,,,,,,001,2025-07-28_08h20.05.971,CGTriskyDMtask,2022.2.1,59.97196322882325,
,,,,,,,,,,,,,,,,,,,,,,,,,,,,,,,,,,,,,,,,,,,,,,,,,,,,,,,,,,,,,,,,,,,,,,,,,,,,,,,,,,,,,,,,,,,,,,,,419.8833232909965,419.8833232909965,return,2.724371707998216,,,,,,,,,,,,,,,,,,,,,,,,,,,,,,,,,,,,,,,,,,,,,001,2025-07-28_08h20.05.971,CGTriskyDMtask,2022.2.1,59.97196322882325,
,,,,,,,,,,,,,,,,,,,,,,,,,,,,,,,,,,,,,,,,,,,,,,,,,,,,,,,,,,,,,,,,,,,,,,,,,,,,,,,,,,,,,,,,,,,,,,,,,,,,422.6347238330054,422.6347238330054,return,1.6086010419821832,,,,,,,,,,,,,,,,,,,,,,,,,,,,,,,,,,,,,,,,,001,2025-07-28_08h20.05.971,CGTriskyDMtask,2022.2.1,59.97196322882325,
3,342,24,2,42,,,,,,,,,,,,,,,,,,0,0,0,0,,,,,,,,,,,,,,,,,,,,,,,,,,,,,,,,,,,,,,,,1,,,,,,,,,,,,,,,,,,,,,,,,,,,,,,,,,,,,,,,426.2667537909874,427.2508719159814,427.26727383298567,428.2507340410084,428.2507340410084,428.2507340410084,428.2507340410084,-2.345800749026239e-05,42,0.025555555555555557,-0.4022222222222222,1,0,0,cont_buttonPractice_2,432.3171685829875,433.31767879100516,,,,,,,,,,,,,,,,,,,,,,,,001,2025-07-28_08h20.05.971,CGTriskyDMtask,2022.2.1,59.97196322882325,
3,937,73,2,37,,,,,,,,,,,,,,,,,,0,1,1,1,,,,,,,,,,,,,,,,,,,,,,,,,,,,,,,,,,,,,,,,1,,,,,,,,,,,,,,,,,,,,,,,,,,,,,,,,,,,,,,,435.3011999159935,436.3006710409827,436.3006710409827,437.30086604098324,437.30086604098324,437.30086604098324,437.30086604098324,-0.0006258749926928431,37,0.025555555555555557,-0.4022222222222222,1,0,0,cont_buttonPractice_2,443.9178173749824,444.9184872909973,,,,,,,,,,,,,,,,,,,,,,,,001,2025-07-28_08h20.05.971,CGTriskyDMtask,2022.2.1,59.97196322882325,
,,,,,,,,,,,,,,,,,,,,,,,,,,,,,,,,,,,,,,,,,,,,,,,,,,,,,,,,,,,,,,,,,,,,,,,,,,,,,,,,,,,,,,,,,,,,,,,,,,,,,,,,,,,,,,,,,,,,,,,,,444.9184872909973,444.9184872909973,return,1.2316307079745457,,,,,,,,,,,,,,,,,,,,001,2025-07-28_08h20.05.971,CGTriskyDMtask,2022.2.1,59.97196322882325,
,,,,,1,,,,,,,,,,,,,,,,,,,,,,,,,0,0,0,0,0,0,0,0,,,,,,,,,,,,,,,,,,,,,,,,,,,,,,,,,,,,,,,,,,,,,"[3, 6]",,,,,,,,,,,,,,,,,,,,,,,,,,,,,,,,,,,,,,,,,,,446.16786858299747,447.16816425000434,447.16816425000434,448.16853558298317,,,,,,,,,,,,,,,,001,2025-07-28_08h20.05.971,CGTriskyDMtask,2022.2.1,59.97196322882325,
,,,,,1,,,,,,,,,,,,,,,,,,,,,,,,,0,0,0,0,1,0,1,0,,,,,,,,,,,,,,,,,,,,,,,,,,,,,,,,,,,,,,,,,,,,,"[3, 6]",,,,,,,,,,,,,,,,,,,,,,,,,,,,,,,,,,,,,,,,,,,448.16853558298317,449.16821674999665,449.16821674999665,450.1682709160086,,,,,,,,,,,,,,,,001,2025-07-28_08h20.05.971,CGTriskyDMtask,2022.2.1,59.97196322882325,
,,,,,1,,,,,,,,,,,,,,,,,,,,,,,,,0,0,0,0,,,,,,,,,,,,,,,,,,,,,,,,,,,,,,,,1,,,,,,,,,,,,,,,,,,,,,,,,,,,,,,,,,,,,,,,,,,,,,,,,,,,,,,,,,,,,,,,,450.1682709160086,450.1682709160086,450.1682709160086,0.009309834014857188,63,0.024444444444444446,-0.4022222222222222,1,0,0,cont_buttonBS,454.1178470829909,455.1181489159935,,,001,2025-07-28_08h20.05.971,CGTriskyDMtask,2022.2.1,59.97196322882325,
,,,,,2,,,,,,,,,,,,,,,,,,,,,,,,,0,1,1,1,0,0,0,0,,,,,,,,,,,,,,,,,,,,,,,,,,,,,,,,,,,,,,,,,,,,,"[1, 8, 3]",,,,,,,,,,,,,,,,,,,,,,,,,,,,,,,,,,,,,,,,,,,455.1181489159935,456.11823366599856,456.11823366599856,457.11882712499937,,,,,,,,,,,,,,,,001,2025-07-28_08h20.05.971,CGTriskyDMtask,2022.2.1,59.97196322882325,
,,,,,2,,,,,,,,,,,,,,,,,,,,,,,,,0,1,1,1,1,0,1,0,,,,,,,,,,,,,,,,,,,,,,,,,,,,,,,,,,,,,,,,,,,,,"[1, 8, 3]",,,,,,,,,,,,,,,,,,,,,,,,,,,,,,,,,,,,,,,,,,,457.11882712499937,458.11813200000324,458.11813200000324,459.118246833008,,,,,,,,,,,,,,,,001,2025-07-28_08h20.05.971,CGTriskyDMtask,2022.2.1,59.97196322882325,
,,,,,2,,,,,,,,,,,,,,,,,,,,,,,,,0,1,1,1,2,0,2,0,,,,,,,,,,,,,,,,,,,,,,,,,,,,,,,,,,,,,,,,,,,,,"[1, 8, 3]",,,,,,,,,,,,,,,,,,,,,,,,,,,,,,,,,,,,,,,,,,,459.118246833008,460.1182729160064,460.1182729160064,461.11770929099293,,,,,,,,,,,,,,,,001,2025-07-28_08h20.05.971,CGTriskyDMtask,2022.2.1,59.97196322882325,
,,,,,2,,,,,,,,,,,,,,,,,,,,,,,,,0,1,1,1,,,,,,,,,,,,,,,,,,,,,,,,,,,,,,,,1,,,,,,,,,,,,,,,,,,,,,,,,,,,,,,,,,,,,,,,,,,,,,,,,,,,,,,,,,,,,,,,,461.11770929099293,461.11770929099293,461.11770929099293,-0.0007347079808823764,381,0.024444444444444446,-0.4022222222222222,1,0,0,cont_buttonBS,462.2192917909997,463.21848987499834,,,001,2025-07-28_08h20.05.971,CGTriskyDMtask,2022.2.1,59.97196322882325,
,,,,,3,,,,,,,,,,,,,,,,,,,,,,,,,0,2,2,2,0,0,0,0,,,,,,,,,,,,,,,,,,,,,,,,,,,,,,,,,,,,,,,,,,,,,"[1, 7, 3, 2]",,,,,,,,,,,,,,,,,,,,,,,,,,,,,,,,,,,,,,,,,,,463.21848987499834,464.2182794580003,464.2182794580003,465.21859800000675,,,,,,,,,,,,,,,,001,2025-07-28_08h20.05.971,CGTriskyDMtask,2022.2.1,59.97196322882325,
,,,,,3,,,,,,,,,,,,,,,,,,,,,,,,,0,2,2,2,1,0,1,0,,,,,,,,,,,,,,,,,,,,,,,,,,,,,,,,,,,,,,,,,,,,,"[1, 7, 3, 2]",,,,,,,,,,,,,,,,,,,,,,,,,,,,,,,,,,,,,,,,,,,465.21859800000675,466.2185543749947,466.2020843749924,467.20187504100613,,,,,,,,,,,,,,,,001,2025-07-28_08h20.05.971,CGTriskyDMtask,2022.2.1,59.97196322882325,
,,,,,3,,,,,,,,,,,,,,,,,,,,,,,,,0,2,2,2,2,0,2,0,,,,,,,,,,,,,,,,,,,,,,,,,,,,,,,,,,,,,,,,,,,,,"[1, 7, 3, 2]",,,,,,,,,,,,,,,,,,,,,,,,,,,,,,,,,,,,,,,,,,,467.21858833299484,468.21919004098163,468.2022466659837,469.2023636249942,,,,,,,,,,,,,,,,001,2025-07-28_08h20.05.971,CGTriskyDMtask,2022.2.1,59.97196322882325,
,,,,,3,,,,,,,,,,,,,,,,,,,,,,,,,0,2,2,2,3,0,3,0,,,,,,,,,,,,,,,,,,,,,,,,,,,,,,,,,,,,,,,,,,,,,"[1, 7, 3, 2]",,,,,,,,,,,,,,,,,,,,,,,,,,,,,,,,,,,,,,,,,,,469.2023636249942,470.20187604098464,470.20187604098464,471.2020972909813,,,,,,,,,,,,,,,,001,2025-07-28_08h20.05.971,CGTriskyDMtask,2022.2.1,59.97196322882325,
,,,,,3,,,,,,,,,,,,,,,,,,,,,,,,,0,2,2,2,,,,,,,,,,,,,,,,,,,,,,,,,,,,,,,,1,,,,,,,,,,,,,,,,,,,,,,,,,,,,,,,,,,,,,,,,,,,,,,,,,,,,,,,,,,,,,,,,471.21864716598066,471.21864716598066,471.21864716598066,-0.000899500009836629,2371,0.024444444444444446,-0.4022222222222222,1,0,0,cont_buttonBS,473.0025725000014,474.0028029579844,,,001,2025-07-28_08h20.05.971,CGTriskyDMtask,2022.2.1,59.97196322882325,
,,,,,4,,,,,,,,,,,,,,,,,,,,,,,,,0,3,3,3,0,0,0,0,,,,,,,,,,,,,,,,,,,,,,,,,,,,,,,,,,,,,,,,,,,,,"[7, 5, 8, 2, 9]",,,,,,,,,,,,,,,,,,,,,,,,,,,,,,,,,,,,,,,,,,,474.0028029579844,475.00314029099536,474.9864357500046,475.9861648750084,,,,,,,,,,,,,,,,001,2025-07-28_08h20.05.971,CGTriskyDMtask,2022.2.1,59.97196322882325,
,,,,,4,,,,,,,,,,,,,,,,,,,,,,,,,0,3,3,3,1,0,1,0,,,,,,,,,,,,,,,,,,,,,,,,,,,,,,,,,,,,,,,,,,,,,"[7, 5, 8, 2, 9]",,,,,,,,,,,,,,,,,,,,,,,,,,,,,,,,,,,,,,,,,,,476.0027292909799,477.0028281249979,476.9864345829992,477.98583108300227,,,,,,,,,,,,,,,,001,2025-07-28_08h20.05.971,CGTriskyDMtask,2022.2.1,59.97196322882325,
,,,,,4,,,,,,,,,,,,,,,,,,,,,,,,,0,3,3,3,2,0,2,0,,,,,,,,,,,,,,,,,,,,,,,,,,,,,,,,,,,,,,,,,,,,,"[7, 5, 8, 2, 9]",,,,,,,,,,,,,,,,,,,,,,,,,,,,,,,,,,,,,,,,,,,478.0025355409889,479.0022990409925,479.0022990409925,480.00262679098523,,,,,,,,,,,,,,,,001,2025-07-28_08h20.05.971,CGTriskyDMtask,2022.2.1,59.97196322882325,
,,,,,4,,,,,,,,,,,,,,,,,,,,,,,,,0,3,3,3,3,0,3,0,,,,,,,,,,,,,,,,,,,,,,,,,,,,,,,,,,,,,,,,,,,,,"[7, 5, 8, 2, 9]",,,,,,,,,,,,,,,,,,,,,,,,,,,,,,,,,,,,,,,,,,,480.00262679098523,481.0027016249951,481.0027016249951,482.0025504579826,,,,,,,,,,,,,,,,001,2025-07-28_08h20.05.971,CGTriskyDMtask,2022.2.1,59.97196322882325,
,,,,,4,,,,,,,,,,,,,,,,,,,,,,,,,0,3,3,3,4,0,4,0,,,,,,,,,,,,,,,,,,,,,,,,,,,,,,,,,,,,,,,,,,,,,"[7, 5, 8, 2, 9]",,,,,,,,,,,,,,,,,,,,,,,,,,,,,,,,,,,,,,,,,,,482.0025504579826,483.0032505829877,482.98645016600494,483.9862203329976,,,,,,,,,,,,,,,,001,2025-07-28_08h20.05.971,CGTriskyDMtask,2022.2.1,59.97196322882325,
,,,,,4,,,,,,,,,,,,,,,,,,,,,,,,,0,3,3,3,,,,,,,,,,,,,,,,,,,,,,,,,,,,,,,,0,,,,,,,,,,,,,,,,,,,,,,,,,,,,,,,,,,,,,,,,,,,,,,,,,,,,,,,,,,,,,,,,484.0028361250006,484.0028361250006,484.0028361250006,-0.0009394999942742288,92875,0.024444444444444446,-0.4022222222222222,1,0,0,cont_buttonBS,489.6194412909972,490.61978275,,,001,2025-07-28_08h20.05.971,CGTriskyDMtask,2022.2.1,59.97196322882325,
,,,,,5,,,,,,,,,,,,,,,,,,,,,,,,,0,4,4,4,0,0,0,0,,,,,,,,,,,,,,,,,,,,,,,,,,,,,,,,,,,,,,,,,,,,,"[3, 8, 7, 9, 2]",,,,,,,,,,,,,,,,,,,,,,,,,,,,,,,,,,,,,,,,,,,490.61978275,491.61946049999096,491.61946049999096,492.61951979098376,,,,,,,,,,,,,,,,001,2025-07-28_08h20.05.971,CGTriskyDMtask,2022.2.1,59.97196322882325,
,,,,,5,,,,,,,,,,,,,,,,,,,,,,,,,0,4,4,4,1,0,1,0,,,,,,,,,,,,,,,,,,,,,,,,,,,,,,,,,,,,,,,,,,,,,"[3, 8, 7, 9, 2]",,,,,,,,,,,,,,,,,,,,,,,,,,,,,,,,,,,,,,,,,,,492.61951979098376,493.6199907909904,493.6199907909904,494.6198431660014,,,,,,,,,,,,,,,,001,2025-07-28_08h20.05.971,CGTriskyDMtask,2022.2.1,59.97196322882325,
,,,,,5,,,,,,,,,,,,,,,,,,,,,,,,,0,4,4,4,2,0,2,0,,,,,,,,,,,,,,,,,,,,,,,,,,,,,,,,,,,,,,,,,,,,,"[3, 8, 7, 9, 2]",,,,,,,,,,,,,,,,,,,,,,,,,,,,,,,,,,,,,,,,,,,494.6198431660014,495.6196691659861,495.6032512499951,496.6030692079803,,,,,,,,,,,,,,,,001,2025-07-28_08h20.05.971,CGTriskyDMtask,2022.2.1,59.97196322882325,
,,,,,5,,,,,,,,,,,,,,,,,,,,,,,,,0,4,4,4,3,0,3,0,,,,,,,,,,,,,,,,,,,,,,,,,,,,,,,,,,,,,,,,,,,,,"[3, 8, 7, 9, 2]",,,,,,,,,,,,,,,,,,,,,,,,,,,,,,,,,,,,,,,,,,,496.6030692079803,497.6042585829855,497.6042585829855,498.60363983298885,,,,,,,,,,,,,,,,001,2025-07-28_08h20.05.971,CGTriskyDMtask,2022.2.1,59.97196322882325,
,,,,,5,,,,,,,,,,,,,,,,,,,,,,,,,0,4,4,4,4,0,4,0,,,,,,,,,,,,,,,,,,,,,,,,,,,,,,,,,,,,,,,,,,,,,"[3, 8, 7, 9, 2]",,,,,,,,,,,,,,,,,,,,,,,,,,,,,,,,,,,,,,,,,,,498.60363983298885,499.6031591249921,499.6031591249921,500.6026987909863,,,,,,,,,,,,,,,,001,2025-07-28_08h20.05.971,CGTriskyDMtask,2022.2.1,59.97196322882325,
,,,,,5,,,,,,,,,,,,,,,,,,,,,,,,,0,4,4,4,,,,,,,,,,,,,,,,,,,,,,,,,,,,,,,,1,,,,,,,,,,,,,,,,,,,,,,,,,,,,,,,,,,,,,,,,,,,,,,,,,,,,,,,,,,,,,,,,500.6026987909863,500.6026987909863,500.6026987909863,0.015821666980627924,29783,0.024444444444444446,-0.4022222222222222,1,0,0,cont_buttonBS,506.1200887080049,507.120265665988,,,001,2025-07-28_08h20.05.971,CGTriskyDMtask,2022.2.1,59.97196322882325,
,,,,,6,,,,,,,,,,,,,,,,,,,,,,,,,0,5,5,5,0,0,0,0,,,,,,,,,,,,,,,,,,,,,,,,,,,,,,,,,,,,,,,,,,,,,"[6, 9, 2, 5, 8, 3]",,,,,,,,,,,,,,,,,,,,,,,,,,,,,,,,,,,,,,,,,,,507.120265665988,508.1205884999945,508.10371845800546,509.10466241600807,,,,,,,,,,,,,,,,001,2025-07-28_08h20.05.971,CGTriskyDMtask,2022.2.1,59.97196322882325,
,,,,,6,,,,,,,,,,,,,,,,,,,,,,,,,0,5,5,5,1,0,1,0,,,,,,,,,,,,,,,,,,,,,,,,,,,,,,,,,,,,,,,,,,,,,"[6, 9, 2, 5, 8, 3]",,,,,,,,,,,,,,,,,,,,,,,,,,,,,,,,,,,,,,,,,,,509.10466241600807,510.1040884999966,510.1040884999966,511.104525999981,,,,,,,,,,,,,,,,001,2025-07-28_08h20.05.971,CGTriskyDMtask,2022.2.1,59.97196322882325,
,,,,,6,,,,,,,,,,,,,,,,,,,,,,,,,0,5,5,5,2,0,2,0,,,,,,,,,,,,,,,,,,,,,,,,,,,,,,,,,,,,,,,,,,,,,"[6, 9, 2, 5, 8, 3]",,,,,,,,,,,,,,,,,,,,,,,,,,,,,,,,,,,,,,,,,,,511.104525999981,512.1042823749885,512.1042823749885,513.1040593329817,,,,,,,,,,,,,,,,001,2025-07-28_08h20.05.971,CGTriskyDMtask,2022.2.1,59.97196322882325,
,,,,,6,,,,,,,,,,,,,,,,,,,,,,,,,0,5,5,5,3,0,3,0,,,,,,,,,,,,,,,,,,,,,,,,,,,,,,,,,,,,,,,,,,,,,"[6, 9, 2, 5, 8, 3]",,,,,,,,,,,,,,,,,,,,,,,,,,,,,,,,,,,,,,,,,,,513.1040593329817,514.1040944579872,514.1040944579872,515.1038649579859,,,,,,,,,,,,,,,,001,2025-07-28_08h20.05.971,CGTriskyDMtask,2022.2.1,59.97196322882325,
,,,,,6,,,,,,,,,,,,,,,,,,,,,,,,,0,5,5,5,4,0,4,0,,,,,,,,,,,,,,,,,,,,,,,,,,,,,,,,,,,,,,,,,,,,,"[6, 9, 2, 5, 8, 3]",,,,,,,,,,,,,,,,,,,,,,,,,,,,,,,,,,,,,,,,,,,515.1038649579859,516.104291124997,516.104291124997,517.1037992909842,,,,,,,,,,,,,,,,001,2025-07-28_08h20.05.971,CGTriskyDMtask,2022.2.1,59.97196322882325,
,,,,,6,,,,,,,,,,,,,,,,,,,,,,,,,0,5,5,5,5,0,5,0,,,,,,,,,,,,,,,,,,,,,,,,,,,,,,,,,,,,,,,,,,,,,"[6, 9, 2, 5, 8, 3]",,,,,,,,,,,,,,,,,,,,,,,,,,,,,,,,,,,,,,,,,,,517.1037992909842,518.1038521250011,518.1038521250011,519.1040034579928,,,,,,,,,,,,,,,,001,2025-07-28_08h20.05.971,CGTriskyDMtask,2022.2.1,59.97196322882325,
,,,,,6,,,,,,,,,,,,,,,,,,,,,,,,,0,5,5,5,,,,,,,,,,,,,,,,,,,,,,,,,,,,,,,,0,,,,,,,,,,,,,,,,,,,,,,,,,,,,,,,,,,,,,,,,,,,,,,,,,,,,,,,,,,,,,,,,519.1040034579928,519.1040034579928,519.1040034579928,-0.0004280419962015003,385297,0.024444444444444446,-0.4022222222222222,1,0,0,cont_buttonBS,522.4373006249953,523.437646040984,,,001,2025-07-28_08h20.05.971,CGTriskyDMtask,2022.2.1,59.97196322882325,
,,,,,7,,,,,,,,,,,,,,,,,,,,,,,,,0,6,6,6,0,0,0,0,,,,,,,,,,,,,,,,,,,,,,,,,,,,,,,,,,,,,,,,,,,,,"[9, 2, 1, 5, 6, 8]",,,,,,,,,,,,,,,,,,,,,,,,,,,,,,,,,,,,,,,,,,,523.437646040984,524.4379635000078,524.4379635000078,525.4379060829815,,,,,,,,,,,,,,,,001,2025-07-28_08h20.05.971,CGTriskyDMtask,2022.2.1,59.97196322882325,
,,,,,7,,,,,,,,,,,,,,,,,,,,,,,,,0,6,6,6,1,0,1,0,,,,,,,,,,,,,,,,,,,,,,,,,,,,,,,,,,,,,,,,,,,,,"[9, 2, 1, 5, 6, 8]",,,,,,,,,,,,,,,,,,,,,,,,,,,,,,,,,,,,,,,,,,,525.4379060829815,526.4374790829897,526.4374790829897,527.4377007079893,,,,,,,,,,,,,,,,001,2025-07-28_08h20.05.971,CGTriskyDMtask,2022.2.1,59.97196322882325,
,,,,,7,,,,,,,,,,,,,,,,,,,,,,,,,0,6,6,6,2,0,2,0,,,,,,,,,,,,,,,,,,,,,,,,,,,,,,,,,,,,,,,,,,,,,"[9, 2, 1, 5, 6, 8]",,,,,,,,,,,,,,,,,,,,,,,,,,,,,,,,,,,,,,,,,,,527.4377007079893,528.4377169579966,528.4215353750042,529.4211164579901,,,,,,,,,,,,,,,,001,2025-07-28_08h20.05.971,CGTriskyDMtask,2022.2.1,59.97196322882325,
,,,,,7,,,,,,,,,,,,,,,,,,,,,,,,,0,6,6,6,3,0,3,0,,,,,,,,,,,,,,,,,,,,,,,,,,,,,,,,,,,,,,,,,,,,,"[9, 2, 1, 5, 6, 8]",,,,,,,,,,,,,,,,,,,,,,,,,,,,,,,,,,,,,,,,,,,529.438251124986,530.4378216250043,530.4378216250043,531.4380393750034,,,,,,,,,,,,,,,,001,2025-07-28_08h20.05.971,CGTriskyDMtask,2022.2.1,59.97196322882325,
,,,,,7,,,,,,,,,,,,,,,,,,,,,,,,,0,6,6,6,4,0,4,0,,,,,,,,,,,,,,,,,,,,,,,,,,,,,,,,,,,,,,,,,,,,,"[9, 2, 1, 5, 6, 8]",,,,,,,,,,,,,,,,,,,,,,,,,,,,,,,,,,,,,,,,,,,531.4380393750034,532.4375595829915,532.4214380409976,533.4211327079975,,,,,,,,,,,,,,,,001,2025-07-28_08h20.05.971,CGTriskyDMtask,2022.2.1,59.97196322882325,
,,,,,7,,,,,,,,,,,,,,,,,,,,,,,,,0,6,6,6,5,0,5,0,,,,,,,,,,,,,,,,,,,,,,,,,,,,,,,,,,,,,,,,,,,,,"[9, 2, 1, 5, 6, 8]",,,,,,,,,,,,,,,,,,,,,,,,,,,,,,,,,,,,,,,,,,,533.4211327079975,534.4216966249805,534.4382044579834,535.437589374982,,,,,,,,,,,,,,,,001,2025-07-28_08h20.05.971,CGTriskyDMtask,2022.2.1,59.97196322882325,
,,,,,7,,,,,,,,,,,,,,,,,,,,,,,,,0,6,6,6,,,,,,,,,,,,,,,,,,,,,,,,,,,,,,,,0,,,,,,,,,,,,,,,,,,,,,,,,,,,,,,,,,,,,,,,,,,,,,,,,,,,,,,,,,,,,,,,,535.437589374982,535.437589374982,535.437589374982,0.00013275002129375935,86512,0.024444444444444446,-0.4022222222222222,1,0,0,cont_buttonBS,537.9382440409972,538.9389025410055,,,001,2025-07-28_08h20.05.971,CGTriskyDMtask,2022.2.1,59.97196322882325,
,,,,,8,,,,,,,,,,,,,,,,,,,,,,,,,0,7,7,7,0,0,0,0,,,,,,,,,,,,,,,,,,,,,,,,,,,,,,,,,,,,,,,,,,,,,"[5, 4, 1, 9, 3]",,,,,,,,,,,,,,,,,,,,,,,,,,,,,,,,,,,,,,,,,,,538.9389025410055,539.9387942909962,539.9221077910042,540.922189749981,,,,,,,,,,,,,,,,001,2025-07-28_08h20.05.971,CGTriskyDMtask,2022.2.1,59.97196322882325,
,,,,,8,,,,,,,,,,,,,,,,,,,,,,,,,0,7,7,7,1,0,1,0,,,,,,,,,,,,,,,,,,,,,,,,,,,,,,,,,,,,,,,,,,,,,"[5, 4, 1, 9, 3]",,,,,,,,,,,,,,,,,,,,,,,,,,,,,,,,,,,,,,,,,,,540.922189749981,541.9225727909943,541.9225727909943,542.9225018750003,,,,,,,,,,,,,,,,001,2025-07-28_08h20.05.971,CGTriskyDMtask,2022.2.1,59.97196322882325,
,,,,,8,,,,,,,,,,,,,,,,,,,,,,,,,0,7,7,7,2,0,2,0,,,,,,,,,,,,,,,,,,,,,,,,,,,,,,,,,,,,,,,,,,,,,"[5, 4, 1, 9, 3]",,,,,,,,,,,,,,,,,,,,,,,,,,,,,,,,,,,,,,,,,,,542.9225018750003,543.9223918750067,543.9223918750067,544.9224423749838,,,,,,,,,,,,,,,,001,2025-07-28_08h20.05.971,CGTriskyDMtask,2022.2.1,59.97196322882325,
,,,,,8,,,,,,,,,,,,,,,,,,,,,,,,,0,7,7,7,3,0,3,0,,,,,,,,,,,,,,,,,,,,,,,,,,,,,,,,,,,,,,,,,,,,,"[5, 4, 1, 9, 3]",,,,,,,,,,,,,,,,,,,,,,,,,,,,,,,,,,,,,,,,,,,544.9224423749838,545.9219531249837,545.9219531249837,546.9216561659996,,,,,,,,,,,,,,,,001,2025-07-28_08h20.05.971,CGTriskyDMtask,2022.2.1,59.97196322882325,
,,,,,8,,,,,,,,,,,,,,,,,,,,,,,,,0,7,7,7,4,0,4,0,,,,,,,,,,,,,,,,,,,,,,,,,,,,,,,,,,,,,,,,,,,,,"[5, 4, 1, 9, 3]",,,,,,,,,,,,,,,,,,,,,,,,,,,,,,,,,,,,,,,,,,,546.9216561659996,547.922030332993,547.922030332993,548.9218752080051,,,,,,,,,,,,,,,,001,2025-07-28_08h20.05.971,CGTriskyDMtask,2022.2.1,59.97196322882325,
,,,,,8,,,,,,,,,,,,,,,,,,,,,,,,,0,7,7,7,,,,,,,,,,,,,,,,,,,,,,,,,,,,,,,,1,,,,,,,,,,,,,,,,,,,,,,,,,,,,,,,,,,,,,,,,,,,,,,,,,,,,,,,,,,,,,,,,548.9218752080051,548.9218752080051,548.9218752080051,-0.0008437920187134296,39145,0.024444444444444446,-0.4022222222222222,1,0,0,cont_buttonBS,553.0386587909888,554.0393719580024,,,001,2025-07-28_08h20.05.971,CGTriskyDMtask,2022.2.1,59.97196322882325,
,,,,,9,,,,,,,,,,,,,,,,,,,,,,,,,0,8,8,8,0,0,0,0,,,,,,,,,,,,,,,,,,,,,,,,,,,,,,,,,,,,,,,,,,,,,"[8, 3, 2, 6, 5, 1]",,,,,,,,,,,,,,,,,,,,,,,,,,,,,,,,,,,,,,,,,,,554.0393719580024,555.0396118749923,555.0229081249854,556.0223268749833,,,,,,,,,,,,,,,,001,2025-07-28_08h20.05.971,CGTriskyDMtask,2022.2.1,59.97196322882325,
,,,,,9,,,,,,,,,,,,,,,,,,,,,,,,,0,8,8,8,1,0,1,0,,,,,,,,,,,,,,,,,,,,,,,,,,,,,,,,,,,,,,,,,,,,,"[8, 3, 2, 6, 5, 1]",,,,,,,,,,,,,,,,,,,,,,,,,,,,,,,,,,,,,,,,,,,556.0390332909883,557.0389101250039,557.0389101250039,558.0395554999996,,,,,,,,,,,,,,,,001,2025-07-28_08h20.05.971,CGTriskyDMtask,2022.2.1,59.97196322882325,
,,,,,9,,,,,,,,,,,,,,,,,,,,,,,,,0,8,8,8,2,0,2,0,,,,,,,,,,,,,,,,,,,,,,,,,,,,,,,,,,,,,,,,,,,,,"[8, 3, 2, 6, 5, 1]",,,,,,,,,,,,,,,,,,,,,,,,,,,,,,,,,,,,,,,,,,,558.0395554999996,559.0397027499857,559.0229212080012,560.0230237499927,,,,,,,,,,,,,,,,001,2025-07-28_08h20.05.971,CGTriskyDMtask,2022.2.1,59.97196322882325,
,,,,,9,,,,,,,,,,,,,,,,,,,,,,,,,0,8,8,8,3,0,3,0,,,,,,,,,,,,,,,,,,,,,,,,,,,,,,,,,,,,,,,,,,,,,"[8, 3, 2, 6, 5, 1]",,,,,,,,,,,,,,,,,,,,,,,,,,,,,,,,,,,,,,,,,,,560.0230237499927,561.0229287080001,561.0229287080001,562.0223799579835,,,,,,,,,,,,,,,,001,2025-07-28_08h20.05.971,CGTriskyDMtask,2022.2.1,59.97196322882325,
,,,,,9,,,,,,,,,,,,,,,,,,,,,,,,,0,8,8,8,4,0,4,0,,,,,,,,,,,,,,,,,,,,,,,,,,,,,,,,,,,,,,,,,,,,,"[8, 3, 2, 6, 5, 1]",,,,,,,,,,,,,,,,,,,,,,,,,,,,,,,,,,,,,,,,,,,562.0223799579835,563.0234531250026,563.0234531250026,564.0236097500019,,,,,,,,,,,,,,,,001,2025-07-28_08h20.05.971,CGTriskyDMtask,2022.2.1,59.97196322882325,
,,,,,9,,,,,,,,,,,,,,,,,,,,,,,,,0,8,8,8,5,0,5,0,,,,,,,,,,,,,,,,,,,,,,,,,,,,,,,,,,,,,,,,,,,,,"[8, 3, 2, 6, 5, 1]",,,,,,,,,,,,,,,,,,,,,,,,,,,,,,,,,,,,,,,,,,,564.0236097500019,565.0234685409814,565.0234685409814,566.0228464159882,,,,,,,,,,,,,,,,001,2025-07-28_08h20.05.971,CGTriskyDMtask,2022.2.1,59.97196322882325,
,,,,,9,,,,,,,,,,,,,,,,,,,,,,,,,0,8,8,8,,,,,,,,,,,,,,,,,,,,,,,,,,,,,,,,1,,,,,,,,,,,,,,,,,,,,,,,,,,,,,,,,,,,,,,,,,,,,,,,,,,,,,,,,,,,,,,,,566.0228464159882,566.0228464159882,566.0228464159882,-0.00043524999637156725,156238,0.024444444444444446,-0.4022222222222222,1,0,0,cont_buttonBS,569.1559168749955,570.1560845409986,,,001,2025-07-28_08h20.05.971,CGTriskyDMtask,2022.2.1,59.97196322882325,
,,,,,10,,,,,,,,,,,,,,,,,,,,,,,,,0,9,9,9,0,0,0,0,,,,,,,,,,,,,,,,,,,,,,,,,,,,,,,,,,,,,,,,,,,,,"[5, 8, 7, 4, 6, 2, 3]",,,,,,,,,,,,,,,,,,,,,,,,,,,,,,,,,,,,,,,,,,,570.1560845409986,571.1561400829814,571.1396205829806,572.1396294159931,,,,,,,,,,,,,,,,001,2025-07-28_08h20.05.971,CGTriskyDMtask,2022.2.1,59.97196322882325,
,,,,,10,,,,,,,,,,,,,,,,,,,,,,,,,0,9,9,9,1,0,1,0,,,,,,,,,,,,,,,,,,,,,,,,,,,,,,,,,,,,,,,,,,,,,"[5, 8, 7, 4, 6, 2, 3]",,,,,,,,,,,,,,,,,,,,,,,,,,,,,,,,,,,,,,,,,,,572.1563509159896,573.1564607080072,573.1399932079948,574.1397918750008,,,,,,,,,,,,,,,,001,2025-07-28_08h20.05.971,CGTriskyDMtask,2022.2.1,59.97196322882325,
,,,,,10,,,,,,,,,,,,,,,,,,,,,,,,,0,9,9,9,2,0,2,0,,,,,,,,,,,,,,,,,,,,,,,,,,,,,,,,,,,,,,,,,,,,,"[5, 8, 7, 4, 6, 2, 3]",,,,,,,,,,,,,,,,,,,,,,,,,,,,,,,,,,,,,,,,,,,574.1397918750008,575.1396699159814,575.1396699159814,576.1399326249957,,,,,,,,,,,,,,,,001,2025-07-28_08h20.05.971,CGTriskyDMtask,2022.2.1,59.97196322882325,
,,,,,10,,,,,,,,,,,,,,,,,,,,,,,,,0,9,9,9,3,0,3,0,,,,,,,,,,,,,,,,,,,,,,,,,,,,,,,,,,,,,,,,,,,,,"[5, 8, 7, 4, 6, 2, 3]",,,,,,,,,,,,,,,,,,,,,,,,,,,,,,,,,,,,,,,,,,,576.1399326249957,577.1397452079982,577.1397452079982,578.1398295830004,,,,,,,,,,,,,,,,001,2025-07-28_08h20.05.971,CGTriskyDMtask,2022.2.1,59.97196322882325,
,,,,,10,,,,,,,,,,,,,,,,,,,,,,,,,0,9,9,9,4,0,4,0,,,,,,,,,,,,,,,,,,,,,,,,,,,,,,,,,,,,,,,,,,,,,"[5, 8, 7, 4, 6, 2, 3]",,,,,,,,,,,,,,,,,,,,,,,,,,,,,,,,,,,,,,,,,,,578.1398295830004,579.1401081249933,579.1401081249933,580.139816165989,,,,,,,,,,,,,,,,001,2025-07-28_08h20.05.971,CGTriskyDMtask,2022.2.1,59.97196322882325,
,,,,,10,,,,,,,,,,,,,,,,,,,,,,,,,0,9,9,9,5,0,5,0,,,,,,,,,,,,,,,,,,,,,,,,,,,,,,,,,,,,,,,,,,,,,"[5, 8, 7, 4, 6, 2, 3]",,,,,,,,,,,,,,,,,,,,,,,,,,,,,,,,,,,,,,,,,,,580.139816165989,581.1402590409853,581.1402590409853,582.139930040983,,,,,,,,,,,,,,,,001,2025-07-28_08h20.05.971,CGTriskyDMtask,2022.2.1,59.97196322882325,
,,,,,10,,,,,,,,,,,,,,,,,,,,,,,,,0,9,9,9,6,0,6,0,,,,,,,,,,,,,,,,,,,,,,,,,,,,,,,,,,,,,,,,,,,,,"[5, 8, 7, 4, 6, 2, 3]",,,,,,,,,,,,,,,,,,,,,,,,,,,,,,,,,,,,,,,,,,,582.139930040983,583.1398835,583.1398835,584.1409479999857,,,,,,,,,,,,,,,,001,2025-07-28_08h20.05.971,CGTriskyDMtask,2022.2.1,59.97196322882325,
,,,,,10,,,,,,,,,,,,,,,,,,,,,,,,,0,9,9,9,,,,,,,,,,,,,,,,,,,,,,,,,,,,,,,,1,,,,,,,,,,,,,,,,,,,,,,,,,,,,,,,,,,,,,,,,,,,,,,,,,,,,,,,,,,,,,,,,584.1409479999857,584.1409479999857,584.1409479999857,0.0005485419824253768,3264785,0.024444444444444446,-0.4022222222222222,1,0,0,cont_buttonBS,590.5907736250083,591.5907147910038,,,001,2025-07-28_08h20.05.971,CGTriskyDMtask,2022.2.1,59.97196322882325,
,,,,,11,,,,,,,,,,,,,,,,,,,,,,,,,0,10,10,10,0,0,0,0,,,,,,,,,,,,,,,,,,,,,,,,,,,,,,,,,,,,,,,,,,,,,"[1, 4, 5, 3, 7, 2, 9, 6]",,,,,,,,,,,,,,,,,,,,,,,,,,,,,,,,,,,,,,,,,,,591.5907147910038,592.5906360409863,592.5906360409863,593.5900942079898,,,,,,,,,,,,,,,,001,2025-07-28_08h20.05.971,CGTriskyDMtask,2022.2.1,59.97196322882325,
,,,,,11,,,,,,,,,,,,,,,,,,,,,,,,,0,10,10,10,1,0,1,0,,,,,,,,,,,,,,,,,,,,,,,,,,,,,,,,,,,,,,,,,,,,,"[1, 4, 5, 3, 7, 2, 9, 6]",,,,,,,,,,,,,,,,,,,,,,,,,,,,,,,,,,,,,,,,,,,593.5900942079898,594.5902704159962,594.5902704159962,595.5903196659929,,,,,,,,,,,,,,,,001,2025-07-28_08h20.05.971,CGTriskyDMtask,2022.2.1,59.97196322882325,
,,,,,11,,,,,,,,,,,,,,,,,,,,,,,,,0,10,10,10,2,0,2,0,,,,,,,,,,,,,,,,,,,,,,,,,,,,,,,,,,,,,,,,,,,,,"[1, 4, 5, 3, 7, 2, 9, 6]",,,,,,,,,,,,,,,,,,,,,,,,,,,,,,,,,,,,,,,,,,,595.5903196659929,596.5905309579975,596.5739059159823,597.5738586249936,,,,,,,,,,,,,,,,001,2025-07-28_08h20.05.971,CGTriskyDMtask,2022.2.1,59.97196322882325,
,,,,,11,,,,,,,,,,,,,,,,,,,,,,,,,0,10,10,10,3,0,3,0,,,,,,,,,,,,,,,,,,,,,,,,,,,,,,,,,,,,,,,,,,,,,"[1, 4, 5, 3, 7, 2, 9, 6]",,,,,,,,,,,,,,,,,,,,,,,,,,,,,,,,,,,,,,,,,,,597.5907055409916,598.590905916004,598.590905916004,599.5908099160006,,,,,,,,,,,,,,,,001,2025-07-28_08h20.05.971,CGTriskyDMtask,2022.2.1,59.97196322882325,
,,,,,11,,,,,,,,,,,,,,,,,,,,,,,,,0,10,10,10,4,0,4,0,,,,,,,,,,,,,,,,,,,,,,,,,,,,,,,,,,,,,,,,,,,,,"[1, 4, 5, 3, 7, 2, 9, 6]",,,,,,,,,,,,,,,,,,,,,,,,,,,,,,,,,,,,,,,,,,,599.5908099160006,600.590709415992,600.5739586660056,601.5742416249996,,,,,,,,,,,,,,,,001,2025-07-28_08h20.05.971,CGTriskyDMtask,2022.2.1,59.97196322882325,
,,,,,11,,,,,,,,,,,,,,,,,,,,,,,,,0,10,10,10,5,0,5,0,,,,,,,,,,,,,,,,,,,,,,,,,,,,,,,,,,,,,,,,,,,,,"[1, 4, 5, 3, 7, 2, 9, 6]",,,,,,,,,,,,,,,,,,,,,,,,,,,,,,,,,,,,,,,,,,,601.5742416249996,602.5744027080073,602.5915104160085,603.5914587079897,,,,,,,,,,,,,,,,001,2025-07-28_08h20.05.971,CGTriskyDMtask,2022.2.1,59.97196322882325,
,,,,,11,,,,,,,,,,,,,,,,,,,,,,,,,0,10,10,10,6,0,6,0,,,,,,,,,,,,,,,,,,,,,,,,,,,,,,,,,,,,,,,,,,,,,"[1, 4, 5, 3, 7, 2, 9, 6]",,,,,,,,,,,,,,,,,,,,,,,,,,,,,,,,,,,,,,,,,,,603.5914587079897,604.5904557500035,604.5904557500035,605.5913103329949,,,,,,,,,,,,,,,,001,2025-07-28_08h20.05.971,CGTriskyDMtask,2022.2.1,59.97196322882325,
,,,,,11,,,,,,,,,,,,,,,,,,,,,,,,,0,10,10,10,7,0,7,0,,,,,,,,,,,,,,,,,,,,,,,,,,,,,,,,,,,,,,,,,,,,,"[1, 4, 5, 3, 7, 2, 9, 6]",,,,,,,,,,,,,,,,,,,,,,,,,,,,,,,,,,,,,,,,,,,605.5913103329949,606.5911951249873,606.5911951249873,607.5909035829827,,,,,,,,,,,,,,,,001,2025-07-28_08h20.05.971,CGTriskyDMtask,2022.2.1,59.97196322882325,
,,,,,11,,,,,,,,,,,,,,,,,,,,,,,,,0,10,10,10,,,,,,,,,,,,,,,,,,,,,,,,,,,,,,,,0,,,,,,,,,,,,,,,,,,,,,,,,,,,,,,,,,,,,,,,,,,,,,,,,,,,,,,,,,,,,,,,,607.5909035829827,607.5909035829827,607.5909035829827,0.0006663329841103405,924754391,0.01,-0.38555555555555554,1,0,0,cont_buttonBS,616.8583065409912,617.8583085830032,,,001,2025-07-28_08h20.05.971,CGTriskyDMtask,2022.2.1,59.97196322882325,
,,,,,12,,,,,,,,,,,,,,,,,,,,,,,,,0,11,11,11,0,0,0,0,,,,,,,,,,,,,,,,,,,,,,,,,,,,,,,,,,,,,,,,,,,,,"[2, 9, 6, 3, 8, 4, 7, 1]",,,,,,,,,,,,,,,,,,,,,,,,,,,,,,,,,,,,,,,,,,,617.8583085830032,618.8581726659904,618.8581726659904,619.8581369580061,,,,,,,,,,,,,,,,001,2025-07-28_08h20.05.971,CGTriskyDMtask,2022.2.1,59.97196322882325,
,,,,,12,,,,,,,,,,,,,,,,,,,,,,,,,0,11,11,11,1,0,1,0,,,,,,,,,,,,,,,,,,,,,,,,,,,,,,,,,,,,,,,,,,,,,"[2, 9, 6, 3, 8, 4, 7, 1]",,,,,,,,,,,,,,,,,,,,,,,,,,,,,,,,,,,,,,,,,,,619.8581369580061,620.8583910409943,620.8583910409943,621.8582905000076,,,,,,,,,,,,,,,,001,2025-07-28_08h20.05.971,CGTriskyDMtask,2022.2.1,59.97196322882325,
,,,,,12,,,,,,,,,,,,,,,,,,,,,,,,,0,11,11,11,2,0,2,0,,,,,,,,,,,,,,,,,,,,,,,,,,,,,,,,,,,,,,,,,,,,,"[2, 9, 6, 3, 8, 4, 7, 1]",,,,,,,,,,,,,,,,,,,,,,,,,,,,,,,,,,,,,,,,,,,621.8582905000076,622.8581284579996,622.8581284579996,623.859265874984,,,,,,,,,,,,,,,,001,2025-07-28_08h20.05.971,CGTriskyDMtask,2022.2.1,59.97196322882325,
,,,,,12,,,,,,,,,,,,,,,,,,,,,,,,,0,11,11,11,3,0,3,0,,,,,,,,,,,,,,,,,,,,,,,,,,,,,,,,,,,,,,,,,,,,,"[2, 9, 6, 3, 8, 4, 7, 1]",,,,,,,,,,,,,,,,,,,,,,,,,,,,,,,,,,,,,,,,,,,623.859265874984,624.8587007909955,624.8421317499888,625.8426535830076,,,,,,,,,,,,,,,,001,2025-07-28_08h20.05.971,CGTriskyDMtask,2022.2.1,59.97196322882325,
,,,,,12,,,,,,,,,,,,,,,,,,,,,,,,,0,11,11,11,4,0,4,0,,,,,,,,,,,,,,,,,,,,,,,,,,,,,,,,,,,,,,,,,,,,,"[2, 9, 6, 3, 8, 4, 7, 1]",,,,,,,,,,,,,,,,,,,,,,,,,,,,,,,,,,,,,,,,,,,625.859002415993,626.8593130410009,626.8422434579988,627.8421009579906,,,,,,,,,,,,,,,,001,2025-07-28_08h20.05.971,CGTriskyDMtask,2022.2.1,59.97196322882325,
,,,,,12,,,,,,,,,,,,,,,,,,,,,,,,,0,11,11,11,5,0,5,0,,,,,,,,,,,,,,,,,,,,,,,,,,,,,,,,,,,,,,,,,,,,,"[2, 9, 6, 3, 8, 4, 7, 1]",,,,,,,,,,,,,,,,,,,,,,,,,,,,,,,,,,,,,,,,,,,627.8591756249953,628.8592042909877,628.8592042909877,629.8584672079887,,,,,,,,,,,,,,,,001,2025-07-28_08h20.05.971,CGTriskyDMtask,2022.2.1,59.97196322882325,
,,,,,12,,,,,,,,,,,,,,,,,,,,,,,,,0,11,11,11,6,0,6,0,,,,,,,,,,,,,,,,,,,,,,,,,,,,,,,,,,,,,,,,,,,,,"[2, 9, 6, 3, 8, 4, 7, 1]",,,,,,,,,,,,,,,,,,,,,,,,,,,,,,,,,,,,,,,,,,,629.8584672079887,630.8584697909828,630.8584697909828,631.8594960829942,,,,,,,,,,,,,,,,001,2025-07-28_08h20.05.971,CGTriskyDMtask,2022.2.1,59.97196322882325,
,,,,,12,,,,,,,,,,,,,,,,,,,,,,,,,0,11,11,11,7,0,7,0,,,,,,,,,,,,,,,,,,,,,,,,,,,,,,,,,,,,,,,,,,,,,"[2, 9, 6, 3, 8, 4, 7, 1]",,,,,,,,,,,,,,,,,,,,,,,,,,,,,,,,,,,,,,,,,,,631.8594960829942,632.8590983749891,632.8423674159858,633.8425990830001,,,,,,,,,,,,,,,,001,2025-07-28_08h20.05.971,CGTriskyDMtask,2022.2.1,59.97196322882325,
,,,,,12,,,,,,,,,,,,,,,,,,,,,,,,,0,11,11,11,,,,,,,,,,,,,,,,,,,,,,,,,,,,,,,,0,,,,,,,,,,,,,,,,,,,,,,,,,,,,,,,,,,,,,,,,,,,,,,,,,,,,,,,,,,,,,,,,633.8425990830001,633.8425990830001,633.8425990830001,-0.0005608340143226087,17369492,0.01,-0.38555555555555554,1,0,0,cont_buttonBS,650.2756908329902,651.2762313330022,,,001,2025-07-28_08h20.05.971,CGTriskyDMtask,2022.2.1,59.97196322882325,
,,,,,13,,,,,,,,,,,,,,,,,,,,,,,,,0,12,12,12,0,0,0,0,,,,,,,,,,,,,,,,,,,,,,,,,,,,,,,,,,,,,,,,,,,,,"[1, 4, 8, 3, 6, 5, 9]",,,,,,,,,,,,,,,,,,,,,,,,,,,,,,,,,,,,,,,,,,,651.2762313330022,652.2766439999978,652.2766439999978,653.2767933330033,,,,,,,,,,,,,,,,001,2025-07-28_08h20.05.971,CGTriskyDMtask,2022.2.1,59.97196322882325,
,,,,,13,,,,,,,,,,,,,,,,,,,,,,,,,0,12,12,12,1,0,1,0,,,,,,,,,,,,,,,,,,,,,,,,,,,,,,,,,,,,,,,,,,,,,"[1, 4, 8, 3, 6, 5, 9]",,,,,,,,,,,,,,,,,,,,,,,,,,,,,,,,,,,,,,,,,,,653.2767933330033,654.2771036659833,654.2599744579929,655.2602792079851,,,,,,,,,,,,,,,,001,2025-07-28_08h20.05.971,CGTriskyDMtask,2022.2.1,59.97196322882325,
,,,,,13,,,,,,,,,,,,,,,,,,,,,,,,,0,12,12,12,2,0,2,0,,,,,,,,,,,,,,,,,,,,,,,,,,,,,,,,,,,,,,,,,,,,,"[1, 4, 8, 3, 6, 5, 9]",,,,,,,,,,,,,,,,,,,,,,,,,,,,,,,,,,,,,,,,,,,655.2602792079851,656.2595835409884,656.2761933330039,657.2765711660031,,,,,,,,,,,,,,,,001,2025-07-28_08h20.05.971,CGTriskyDMtask,2022.2.1,59.97196322882325,
,,,,,13,,,,,,,,,,,,,,,,,,,,,,,,,0,12,12,12,3,0,3,0,,,,,,,,,,,,,,,,,,,,,,,,,,,,,,,,,,,,,,,,,,,,,"[1, 4, 8, 3, 6, 5, 9]",,,,,,,,,,,,,,,,,,,,,,,,,,,,,,,,,,,,,,,,,,,657.2765711660031,658.2762084160058,658.2762084160058,659.2763689580024,,,,,,,,,,,,,,,,001,2025-07-28_08h20.05.971,CGTriskyDMtask,2022.2.1,59.97196322882325,
,,,,,13,,,,,,,,,,,,,,,,,,,,,,,,,0,12,12,12,4,0,4,0,,,,,,,,,,,,,,,,,,,,,,,,,,,,,,,,,,,,,,,,,,,,,"[1, 4, 8, 3, 6, 5, 9]",,,,,,,,,,,,,,,,,,,,,,,,,,,,,,,,,,,,,,,,,,,659.2763689580024,660.2762135829835,660.2762135829835,661.2766257500043,,,,,,,,,,,,,,,,001,2025-07-28_08h20.05.971,CGTriskyDMtask,2022.2.1,59.97196322882325,
,,,,,13,,,,,,,,,,,,,,,,,,,,,,,,,0,12,12,12,5,0,5,0,,,,,,,,,,,,,,,,,,,,,,,,,,,,,,,,,,,,,,,,,,,,,"[1, 4, 8, 3, 6, 5, 9]",,,,,,,,,,,,,,,,,,,,,,,,,,,,,,,,,,,,,,,,,,,661.2766257500043,662.2771307500079,662.2606764159864,663.2605526660045,,,,,,,,,,,,,,,,001,2025-07-28_08h20.05.971,CGTriskyDMtask,2022.2.1,59.97196322882325,
,,,,,13,,,,,,,,,,,,,,,,,,,,,,,,,0,12,12,12,6,0,6,0,,,,,,,,,,,,,,,,,,,,,,,,,,,,,,,,,,,,,,,,,,,,,"[1, 4, 8, 3, 6, 5, 9]",,,,,,,,,,,,,,,,,,,,,,,,,,,,,,,,,,,,,,,,,,,663.2605526660045,664.2605779999867,664.2605779999867,665.2609883330006,,,,,,,,,,,,,,,,001,2025-07-28_08h20.05.971,CGTriskyDMtask,2022.2.1,59.97196322882325,
,,,,,13,,,,,,,,,,,,,,,,,,,,,,,,,0,12,12,12,,,,,,,,,,,,,,,,,,,,,,,,,,,,,,,,0,,,,,,,,,,,,,,,,,,,,,,,,,,,,,,,,,,,,,,,,,,,,,,,,,,,,,,,,,,,,,,,,665.2609883330006,665.2609883330006,665.2609883330006,4.529199213720858e-05,9563482,0.01,-0.38555555555555554,1,0,0,cont_buttonBS,672.4102951659879,673.4108736659982,,,001,2025-07-28_08h20.05.971,CGTriskyDMtask,2022.2.1,59.97196322882325,
,,,,,14,,,,,,,,,,,,,,,,,,,,,,,,,0,13,13,13,0,0,0,0,,,,,,,,,,,,,,,,,,,,,,,,,,,,,,,,,,,,,,,,,,,,,"[7, 6, 8, 5, 2, 9, 3]",,,,,,,,,,,,,,,,,,,,,,,,,,,,,,,,,,,,,,,,,,,673.4108736659982,674.410617290996,674.3944595829817,675.3935022499936,,,,,,,,,,,,,,,,001,2025-07-28_08h20.05.971,CGTriskyDMtask,2022.2.1,59.97196322882325,
,,,,,14,,,,,,,,,,,,,,,,,,,,,,,,,0,13,13,13,1,0,1,0,,,,,,,,,,,,,,,,,,,,,,,,,,,,,,,,,,,,,,,,,,,,,"[7, 6, 8, 5, 2, 9, 3]",,,,,,,,,,,,,,,,,,,,,,,,,,,,,,,,,,,,,,,,,,,675.4102327500004,676.4101695409918,676.4101695409918,677.4104308329988,,,,,,,,,,,,,,,,001,2025-07-28_08h20.05.971,CGTriskyDMtask,2022.2.1,59.97196322882325,
,,,,,14,,,,,,,,,,,,,,,,,,,,,,,,,0,13,13,13,2,0,2,0,,,,,,,,,,,,,,,,,,,,,,,,,,,,,,,,,,,,,,,,,,,,,"[7, 6, 8, 5, 2, 9, 3]",,,,,,,,,,,,,,,,,,,,,,,,,,,,,,,,,,,,,,,,,,,677.4104308329988,678.410970915982,678.3939730410057,679.3941739579896,,,,,,,,,,,,,,,,001,2025-07-28_08h20.05.971,CGTriskyDMtask,2022.2.1,59.97196322882325,
,,,,,14,,,,,,,,,,,,,,,,,,,,,,,,,0,13,13,13,3,0,3,0,,,,,,,,,,,,,,,,,,,,,,,,,,,,,,,,,,,,,,,,,,,,,"[7, 6, 8, 5, 2, 9, 3]",,,,,,,,,,,,,,,,,,,,,,,,,,,,,,,,,,,,,,,,,,,679.4104855830083,680.4104989159969,680.3946032079984,681.3937670000014,,,,,,,,,,,,,,,,001,2025-07-28_08h20.05.971,CGTriskyDMtask,2022.2.1,59.97196322882325,
,,,,,14,,,,,,,,,,,,,,,,,,,,,,,,,0,13,13,13,4,0,4,0,,,,,,,,,,,,,,,,,,,,,,,,,,,,,,,,,,,,,,,,,,,,,"[7, 6, 8, 5, 2, 9, 3]",,,,,,,,,,,,,,,,,,,,,,,,,,,,,,,,,,,,,,,,,,,681.3937670000014,682.3942093749938,682.3942093749938,683.3940742499835,,,,,,,,,,,,,,,,001,2025-07-28_08h20.05.971,CGTriskyDMtask,2022.2.1,59.97196322882325,
,,,,,14,,,,,,,,,,,,,,,,,,,,,,,,,0,13,13,13,5,0,5,0,,,,,,,,,,,,,,,,,,,,,,,,,,,,,,,,,,,,,,,,,,,,,"[7, 6, 8, 5, 2, 9, 3]",,,,,,,,,,,,,,,,,,,,,,,,,,,,,,,,,,,,,,,,,,,683.3940742499835,684.3947091249865,684.3947091249865,685.3949731659959,,,,,,,,,,,,,,,,001,2025-07-28_08h20.05.971,CGTriskyDMtask,2022.2.1,59.97196322882325,
,,,,,14,,,,,,,,,,,,,,,,,,,,,,,,,0,13,13,13,6,0,6,0,,,,,,,,,,,,,,,,,,,,,,,,,,,,,,,,,,,,,,,,,,,,,"[7, 6, 8, 5, 2, 9, 3]",,,,,,,,,,,,,,,,,,,,,,,,,,,,,,,,,,,,,,,,,,,685.3949731659959,686.3947453330038,686.3947453330038,687.3946052079846,,,,,,,,,,,,,,,,001,2025-07-28_08h20.05.971,CGTriskyDMtask,2022.2.1,59.97196322882325,
,,,,,14,,,,,,,,,,,,,,,,,,,,,,,,,0,13,13,13,,,,,,,,,,,,,,,,,,,,,,,,,,,,,,,,0,,,,,,,,,,,,,,,,,,,,,,,,,,,,,,,,,,,,,,,,,,,,,,,,,,,,,,,,,,,,,,,,687.3946052079846,687.3946052079846,687.3946052079846,-0.000215375010157004,4593867,0.01,-0.38555555555555554,1,0,0,cont_buttonBS,696.4616336659819,697.461097499996,,,001,2025-07-28_08h20.05.971,CGTriskyDMtask,2022.2.1,59.97196322882325,
,,,,,,,,,,,,,,,,,,,,,,,,,,,,,,,,,,,,,,,,,,,,,,,,,,,,,,,,,,,,,,,,,,,,,,,,,,,,,,,,,,,,,,,,,,,,,,,,,,,,,,,,,,,,,,,,,,,,,,,,,,,,,,,,,,,,,,,,,,,,,,697.461097499996,699.4618978329818,,,,,,
