digitSpanForward,digits,digitsReverse,digitSpanReverse,digitsReverseCorrAnswer,trialNumber,trialFSPractice.thisRepN,trialFSPractice.thisTrialN,trialFSPractice.thisN,trialFSPractice.thisIndex,DigitLoopPractice.thisRepN,DigitLoopPractice.thisTrialN,DigitLoopPractice.thisN,DigitLoopPractice.thisIndex,trialsFS.thisRepN,trialsFS.thisTrialN,trialsFS.thisN,trialsFS.thisIndex,digitLoop.thisRepN,digitLoop.thisTrialN,digitLoop.thisN,digitLoop.thisIndex,trialsPracticeBS.thisRepN,trialsPracticeBS.thisTrialN,trialsPracticeBS.thisN,trialsPracticeBS.thisIndex,digitLoopPracticeBS.thisRepN,digitLoopPracticeBS.thisTrialN,digitLoopPracticeBS.thisN,digitLoopPracticeBS.thisIndex,trialsBS.thisRepN,trialsBS.thisTrialN,trialsBS.thisN,trialsBS.thisIndex,digitLoopBS.thisRepN,digitLoopBS.thisTrialN,digitLoopBS.thisN,digitLoopBS.thisIndex,thisRow.t,notes,GenInsText.started,movealong.started,movealong.keys,movealong.rt,Reminder1.started,movealong2.started,movealong2.keys,movealong2.rt,Reminder2.started,movealong3.started,movealong3.keys,movealong3.rt,FSGenInsText.started,startPractice.started,startPractice.keys,startPractice.rt,fixation_2.started,pres_text_practice.started,fixation_2.stopped,pres_text_practice.stopped,recall_txtPractice.started,textboxPractice.started,cont_buttonPractice.started,mousePractice.started,textboxPractice.text,correct,mousePractice.x,mousePractice.y,mousePractice.leftButton,mousePractice.midButton,mousePractice.rightButton,mousePractice.clicked_name,feedbac_textPractice.started,feedbac_textPractice.stopped,praccomplete.started,startFSreal.started,startFSreal.keys,startFSreal.rt,fixation.started,fixation.stopped,presentation_text.started,presentation_text.stopped,digitsForTrial,recall_txt.started,textbox.started,cont_button.started,mouse_3.started,textbox.text,mouse_3.x,mouse_3.y,mouse_3.leftButton,mouse_3.midButton,mouse_3.rightButton,mouse_3.clicked_name,feedback_text.started,feedback_text.stopped,roundTransition.started,moveToBS.started,moveToBS.keys,moveToBS.rt,BSGenInsText.started,startBSprac.started,startBSprac.keys,startBSprac.rt,fixation_3.started,fixation_3.stopped,pres_text_practice_2.started,pres_text_practice_2.stopped,recall_txtPractice_2.started,textboxPractice_2.started,cont_buttonPractice_2.started,mousePractice_2.started,textboxPractice_2.text,mousePractice_2.x,mousePractice_2.y,mousePractice_2.leftButton,mousePractice_2.midButton,mousePractice_2.rightButton,mousePractice_2.clicked_name,feedbac_textPractice_2.started,feedbac_textPractice_2.stopped,praccompleteBS.started,startBSreal.started,startBSreal.keys,startBSreal.rt,fixationBS.started,presentation_textBS.started,fixationBS.stopped,presentation_textBS.stopped,recall_txtBS.started,textboxBS.started,cont_buttonBS.started,mouseBS.started,textboxBS.text,mouseBS.x,mouseBS.y,mouseBS.leftButton,mouseBS.midButton,mouseBS.rightButton,mouseBS.clicked_name,feedback_textBS.started,feedback_textBS.stopped,ThankYou.started,ThankYou.stopped,participant,date,expName,psychopyVersion,frameRate,
,,,,,,,,,,,,,,,,,,,,,,,,,,,,,,,,,,,,,,,,24.379733584006317,24.379733584006317,return,341.3424844160036,,,,,,,,,,,,,,,,,,,,,,,,,,,,,,,,,,,,,,,,,,,,,,,,,,,,,,,,,,,,,,,,,,,,,,,,,,,,,,,,,,,,,,,,,,,,,,,,,,,,,002,2025-07-28_18h56.43.203,CGTriskyDMtask,2022.2.1,59.5761748506674,
,,,,,,,,,,,,,,,,,,,,,,,,,,,,,,,,,,,,,,,,,,,,365.7512261670199,365.7512261670199,return,4.661958874028642,,,,,,,,,,,,,,,,,,,,,,,,,,,,,,,,,,,,,,,,,,,,,,,,,,,,,,,,,,,,,,,,,,,,,,,,,,,,,,,,,,,,,,,,,,,,,,,,,002,2025-07-28_18h56.43.203,CGTriskyDMtask,2022.2.1,59.5761748506674,
,,,,,,,,,,,,,,,,,,,,,,,,,,,,,,,,,,,,,,,,,,,,,,,,370.4401027090207,370.4401027090207,return,7.018961666006362,,,,,,,,,,,,,,,,,,,,,,,,,,,,,,,,,,,,,,,,,,,,,,,,,,,,,,,,,,,,,,,,,,,,,,,,,,,,,,,,,,,,,,,,,,,,,002,2025-07-28_18h56.43.203,CGTriskyDMtask,2022.2.1,59.5761748506674,
,,,,,,,,,,,,,,,,,,,,,,,,,,,,,,,,,,,,,,,,,,,,,,,,,,,,377.49026687501464,377.49026687501464,return,20.77291429101024,,,,,,,,,,,,,,,,,,,,,,,,,,,,,,,,,,,,,,,,,,,,,,,,,,,,,,,,,,,,,,,,,,,,,,,,,,,,,,,,,,,,,,,,,002,2025-07-28_18h56.43.203,CGTriskyDMtask,2022.2.1,59.5761748506674,
3,342,24,2,42,,0,0,0,0,,,,,,,,,,,,,,,,,,,,,,,,,,,,,,,,,,,,,,,,,,,,,,,402.2917017500149,403.29158554199967,403.29158554199967,404.2914579999924,404.2914579999924,404.2914579999924,404.2914579999924,-0.0003588330000638962,342,1,-0.05,-0.39222222222222225,1,0,0,cont_buttonPractice,407.6915694170166,408.69181725001545,,,,,,,,,,,,,,,,,,,,,,,,,,,,,,,,,,,,,,,,,,,,,,,,,,,,,,,,,,,,,,,,,,,,,,,002,2025-07-28_18h56.43.203,CGTriskyDMtask,2022.2.1,59.5761748506674,
3,937,73,2,37,,0,1,1,1,,,,,,,,,,,,,,,,,,,,,,,,,,,,,,,,,,,,,,,,,,,,,,,412.6926220000023,413.6918777920073,413.6918777920073,414.6920592090173,414.6920592090173,414.6920592090173,414.6920592090173,-0.0003949170059058815,937,1,-0.024444444444444446,-0.42,1,0,0,cont_buttonPractice,417.45874674999504,418.4587587499991,,,,,,,,,,,,,,,,,,,,,,,,,,,,,,,,,,,,,,,,,,,,,,,,,,,,,,,,,,,,,,,,,,,,,,,002,2025-07-28_18h56.43.203,CGTriskyDMtask,2022.2.1,59.5761748506674,
,,,,,,,,,,,,,,,,,,,,,,,,,,,,,,,,,,,,,,,,,,,,,,,,,,,,,,,,,,,,,,,,,,,,,,,,,,418.4587587499991,418.4587587499991,return,16.795978999027284,,,,,,,,,,,,,,,,,,,,,,,,,,,,,,,,,,,,,,,,,,,,,,,,,,,,,,,,,,,,,,,,,,,002,2025-07-28_18h56.43.203,CGTriskyDMtask,2022.2.1,59.5761748506674,
,,,,,1,,,,,,,,,0,0,0,0,0,0,0,0,,,,,,,,,,,,,,,,,,,,,,,,,,,,,,,,,,,,,,,,,,,,,,,,,,,,,,,,,435.27676383400103,436.2764132920129,436.2764132920129,437.27629987499677,"[6, 2, 4]",,,,,,,,,,,,,,,,,,,,,,,,,,,,,,,,,,,,,,,,,,,,,,,,,,,,,,,,,,,,,,002,2025-07-28_18h56.43.203,CGTriskyDMtask,2022.2.1,59.5761748506674,
,,,,,1,,,,,,,,,0,0,0,0,1,0,1,0,,,,,,,,,,,,,,,,,,,,,,,,,,,,,,,,,,,,,,,,,,,,,,,,,,,,,,,,,437.27629987499677,438.2771207920159,438.2771207920159,439.2763328750152,"[6, 2, 4]",,,,,,,,,,,,,,,,,,,,,,,,,,,,,,,,,,,,,,,,,,,,,,,,,,,,,,,,,,,,,,002,2025-07-28_18h56.43.203,CGTriskyDMtask,2022.2.1,59.5761748506674,
,,,,,1,,,,,,,,,0,0,0,0,2,0,2,0,,,,,,,,,,,,,,,,,,,,,,,,,,,,,,,,,,,,,,,,,,,,,,,,,,,,,,,,,439.2763328750152,440.2767035420111,440.2767035420111,441.27684895900893,"[6, 2, 4]",,,,,,,,,,,,,,,,,,,,,,,,,,,,,,,,,,,,,,,,,,,,,,,,,,,,,,,,,,,,,,002,2025-07-28_18h56.43.203,CGTriskyDMtask,2022.2.1,59.5761748506674,
,,,,,1,,,,,,,,,0,0,0,0,,,,,,,,,,,,,,,,,,,,,,,,,,,,,,,,,,,,,,,,,,,,,,,,1,,,,,,,,,,,,,,,,,,441.27684895900893,441.27684895900893,441.27684895900893,0.009924374986439943,624,-0.034444444444444444,-0.3988888888888889,1,0,0,cont_button,443.06032979200245,444.05990562500665,,,,,,,,,,,,,,,,,,,,,,,,,,,,,,,,,,,,,,,,,,,,,,,,,002,2025-07-28_18h56.43.203,CGTriskyDMtask,2022.2.1,59.5761748506674,
,,,,,2,,,,,,,,,0,1,1,1,0,0,0,0,,,,,,,,,,,,,,,,,,,,,,,,,,,,,,,,,,,,,,,,,,,,,,,,,,,,,,,,,444.05990562500665,445.06060741702095,445.0436520840158,446.04322520899586,"[4, 2, 9, 8]",,,,,,,,,,,,,,,,,,,,,,,,,,,,,,,,,,,,,,,,,,,,,,,,,,,,,,,,,,,,,,002,2025-07-28_18h56.43.203,CGTriskyDMtask,2022.2.1,59.5761748506674,
,,,,,2,,,,,,,,,0,1,1,1,1,0,1,0,,,,,,,,,,,,,,,,,,,,,,,,,,,,,,,,,,,,,,,,,,,,,,,,,,,,,,,,,446.04322520899586,447.0433140420064,447.0433140420064,448.0433312919922,"[4, 2, 9, 8]",,,,,,,,,,,,,,,,,,,,,,,,,,,,,,,,,,,,,,,,,,,,,,,,,,,,,,,,,,,,,,002,2025-07-28_18h56.43.203,CGTriskyDMtask,2022.2.1,59.5761748506674,
,,,,,2,,,,,,,,,0,1,1,1,2,0,2,0,,,,,,,,,,,,,,,,,,,,,,,,,,,,,,,,,,,,,,,,,,,,,,,,,,,,,,,,,448.0433312919922,449.043455084,449.043455084,450.0434519590053,"[4, 2, 9, 8]",,,,,,,,,,,,,,,,,,,,,,,,,,,,,,,,,,,,,,,,,,,,,,,,,,,,,,,,,,,,,,002,2025-07-28_18h56.43.203,CGTriskyDMtask,2022.2.1,59.5761748506674,
,,,,,2,,,,,,,,,0,1,1,1,3,0,3,0,,,,,,,,,,,,,,,,,,,,,,,,,,,,,,,,,,,,,,,,,,,,,,,,,,,,,,,,,450.0434519590053,451.04350766699645,451.04350766699645,452.0436008340039,"[4, 2, 9, 8]",,,,,,,,,,,,,,,,,,,,,,,,,,,,,,,,,,,,,,,,,,,,,,,,,,,,,,,,,,,,,,002,2025-07-28_18h56.43.203,CGTriskyDMtask,2022.2.1,59.5761748506674,
,,,,,2,,,,,,,,,0,1,1,1,,,,,,,,,,,,,,,,,,,,,,,,,,,,,,,,,,,,,,,,,,,,,,,,1,,,,,,,,,,,,,,,,,,452.0436008340039,452.0436008340039,452.0436008340039,-0.0004170829779468477,4298,-0.03666666666666667,-0.4166666666666667,1,0,0,cont_button,456.0441634590097,457.04388295899844,,,,,,,,,,,,,,,,,,,,,,,,,,,,,,,,,,,,,,,,,,,,,,,,,002,2025-07-28_18h56.43.203,CGTriskyDMtask,2022.2.1,59.5761748506674,
,,,,,3,,,,,,,,,0,2,2,2,0,0,0,0,,,,,,,,,,,,,,,,,,,,,,,,,,,,,,,,,,,,,,,,,,,,,,,,,,,,,,,,,457.04388295899844,458.0449550000194,458.0286190000188,459.02821474999655,"[4, 7, 8, 1, 6]",,,,,,,,,,,,,,,,,,,,,,,,,,,,,,,,,,,,,,,,,,,,,,,,,,,,,,,,,,,,,,002,2025-07-28_18h56.43.203,CGTriskyDMtask,2022.2.1,59.5761748506674,
,,,,,3,,,,,,,,,0,2,2,2,1,0,1,0,,,,,,,,,,,,,,,,,,,,,,,,,,,,,,,,,,,,,,,,,,,,,,,,,,,,,,,,,459.02821474999655,460.0272530000075,460.0272530000075,461.02735162500176,"[4, 7, 8, 1, 6]",,,,,,,,,,,,,,,,,,,,,,,,,,,,,,,,,,,,,,,,,,,,,,,,,,,,,,,,,,,,,,002,2025-07-28_18h56.43.203,CGTriskyDMtask,2022.2.1,59.5761748506674,
,,,,,3,,,,,,,,,0,2,2,2,2,0,2,0,,,,,,,,,,,,,,,,,,,,,,,,,,,,,,,,,,,,,,,,,,,,,,,,,,,,,,,,,461.02735162500176,462.0273241669929,462.0273241669929,463.02741270899423,"[4, 7, 8, 1, 6]",,,,,,,,,,,,,,,,,,,,,,,,,,,,,,,,,,,,,,,,,,,,,,,,,,,,,,,,,,,,,,002,2025-07-28_18h56.43.203,CGTriskyDMtask,2022.2.1,59.5761748506674,
,,,,,3,,,,,,,,,0,2,2,2,3,0,3,0,,,,,,,,,,,,,,,,,,,,,,,,,,,,,,,,,,,,,,,,,,,,,,,,,,,,,,,,,463.02741270899423,464.0274835420132,464.0274835420132,465.02751433401136,"[4, 7, 8, 1, 6]",,,,,,,,,,,,,,,,,,,,,,,,,,,,,,,,,,,,,,,,,,,,,,,,,,,,,,,,,,,,,,002,2025-07-28_18h56.43.203,CGTriskyDMtask,2022.2.1,59.5761748506674,
,,,,,3,,,,,,,,,0,2,2,2,4,0,4,0,,,,,,,,,,,,,,,,,,,,,,,,,,,,,,,,,,,,,,,,,,,,,,,,,,,,,,,,,465.02751433401136,466.0283507090062,466.0283507090062,467.02790854201885,"[4, 7, 8, 1, 6]",,,,,,,,,,,,,,,,,,,,,,,,,,,,,,,,,,,,,,,,,,,,,,,,,,,,,,,,,,,,,,002,2025-07-28_18h56.43.203,CGTriskyDMtask,2022.2.1,59.5761748506674,
,,,,,3,,,,,,,,,0,2,2,2,,,,,,,,,,,,,,,,,,,,,,,,,,,,,,,,,,,,,,,,,,,,,,,,1,,,,,,,,,,,,,,,,,,467.02790854201885,467.02790854201885,467.02790854201885,4.4791988329961896e-05,47816,-0.0033333333333333335,-0.4122222222222222,1,0,0,cont_button,470.7612530000042,471.7614947920083,,,,,,,,,,,,,,,,,,,,,,,,,,,,,,,,,,,,,,,,,,,,,,,,,002,2025-07-28_18h56.43.203,CGTriskyDMtask,2022.2.1,59.5761748506674,
,,,,,4,,,,,,,,,0,3,3,3,0,0,0,0,,,,,,,,,,,,,,,,,,,,,,,,,,,,,,,,,,,,,,,,,,,,,,,,,,,,,,,,,471.7614947920083,472.7613230420102,472.74463554201066,473.7445134590089,"[1, 8, 7, 9, 3, 5]",,,,,,,,,,,,,,,,,,,,,,,,,,,,,,,,,,,,,,,,,,,,,,,,,,,,,,,,,,,,,,002,2025-07-28_18h56.43.203,CGTriskyDMtask,2022.2.1,59.5761748506674,
,,,,,4,,,,,,,,,0,3,3,3,1,0,1,0,,,,,,,,,,,,,,,,,,,,,,,,,,,,,,,,,,,,,,,,,,,,,,,,,,,,,,,,,473.76107362500625,474.7612882500107,474.74459300001035,475.7444537499978,"[1, 8, 7, 9, 3, 5]",,,,,,,,,,,,,,,,,,,,,,,,,,,,,,,,,,,,,,,,,,,,,,,,,,,,,,,,,,,,,,002,2025-07-28_18h56.43.203,CGTriskyDMtask,2022.2.1,59.5761748506674,
,,,,,4,,,,,,,,,0,3,3,3,2,0,2,0,,,,,,,,,,,,,,,,,,,,,,,,,,,,,,,,,,,,,,,,,,,,,,,,,,,,,,,,,475.7444537499978,476.74454654200235,476.74454654200235,477.74467108401586,"[1, 8, 7, 9, 3, 5]",,,,,,,,,,,,,,,,,,,,,,,,,,,,,,,,,,,,,,,,,,,,,,,,,,,,,,,,,,,,,,002,2025-07-28_18h56.43.203,CGTriskyDMtask,2022.2.1,59.5761748506674,
,,,,,4,,,,,,,,,0,3,3,3,3,0,3,0,,,,,,,,,,,,,,,,,,,,,,,,,,,,,,,,,,,,,,,,,,,,,,,,,,,,,,,,,477.74467108401586,478.74492066699895,478.74492066699895,479.74478062501294,"[1, 8, 7, 9, 3, 5]",,,,,,,,,,,,,,,,,,,,,,,,,,,,,,,,,,,,,,,,,,,,,,,,,,,,,,,,,,,,,,002,2025-07-28_18h56.43.203,CGTriskyDMtask,2022.2.1,59.5761748506674,
,,,,,4,,,,,,,,,0,3,3,3,4,0,4,0,,,,,,,,,,,,,,,,,,,,,,,,,,,,,,,,,,,,,,,,,,,,,,,,,,,,,,,,,479.74478062501294,480.7449360419996,480.7449360419996,481.745710667019,"[1, 8, 7, 9, 3, 5]",,,,,,,,,,,,,,,,,,,,,,,,,,,,,,,,,,,,,,,,,,,,,,,,,,,,,,,,,,,,,,002,2025-07-28_18h56.43.203,CGTriskyDMtask,2022.2.1,59.5761748506674,
,,,,,4,,,,,,,,,0,3,3,3,5,0,5,0,,,,,,,,,,,,,,,,,,,,,,,,,,,,,,,,,,,,,,,,,,,,,,,,,,,,,,,,,481.745710667019,482.74477479199413,482.74477479199413,483.7455909170094,"[1, 8, 7, 9, 3, 5]",,,,,,,,,,,,,,,,,,,,,,,,,,,,,,,,,,,,,,,,,,,,,,,,,,,,,,,,,,,,,,002,2025-07-28_18h56.43.203,CGTriskyDMtask,2022.2.1,59.5761748506674,
,,,,,4,,,,,,,,,0,3,3,3,,,,,,,,,,,,,,,,,,,,,,,,,,,,,,,,,,,,,,,,,,,,,,,,1,,,,,,,,,,,,,,,,,,483.7455909170094,483.7455909170094,483.7455909170094,0.00019695900846272707,187935,-0.056666666666666664,-0.4011111111111111,1,0,0,cont_button,487.6782623750041,488.6792993340059,,,,,,,,,,,,,,,,,,,,,,,,,,,,,,,,,,,,,,,,,,,,,,,,,002,2025-07-28_18h56.43.203,CGTriskyDMtask,2022.2.1,59.5761748506674,
,,,,,5,,,,,,,,,0,4,4,4,0,0,0,0,,,,,,,,,,,,,,,,,,,,,,,,,,,,,,,,,,,,,,,,,,,,,,,,,,,,,,,,,488.6792993340059,489.67917491699336,489.67917491699336,490.6799445840006,"[5, 4, 2, 6, 7, 3, 8]",,,,,,,,,,,,,,,,,,,,,,,,,,,,,,,,,,,,,,,,,,,,,,,,,,,,,,,,,,,,,,002,2025-07-28_18h56.43.203,CGTriskyDMtask,2022.2.1,59.5761748506674,
,,,,,5,,,,,,,,,0,4,4,4,1,0,1,0,,,,,,,,,,,,,,,,,,,,,,,,,,,,,,,,,,,,,,,,,,,,,,,,,,,,,,,,,490.6799445840006,491.6785561249999,491.6622827920073,492.6631985839922,"[5, 4, 2, 6, 7, 3, 8]",,,,,,,,,,,,,,,,,,,,,,,,,,,,,,,,,,,,,,,,,,,,,,,,,,,,,,,,,,,,,,002,2025-07-28_18h56.43.203,CGTriskyDMtask,2022.2.1,59.5761748506674,
,,,,,5,,,,,,,,,0,4,4,4,2,0,2,0,,,,,,,,,,,,,,,,,,,,,,,,,,,,,,,,,,,,,,,,,,,,,,,,,,,,,,,,,492.6631985839922,493.6787079999922,493.66201583400834,494.6619971670152,"[5, 4, 2, 6, 7, 3, 8]",,,,,,,,,,,,,,,,,,,,,,,,,,,,,,,,,,,,,,,,,,,,,,,,,,,,,,,,,,,,,,002,2025-07-28_18h56.43.203,CGTriskyDMtask,2022.2.1,59.5761748506674,
,,,,,5,,,,,,,,,0,4,4,4,3,0,3,0,,,,,,,,,,,,,,,,,,,,,,,,,,,,,,,,,,,,,,,,,,,,,,,,,,,,,,,,,494.6619971670152,495.6620752500021,495.6620752500021,496.66268166701775,"[5, 4, 2, 6, 7, 3, 8]",,,,,,,,,,,,,,,,,,,,,,,,,,,,,,,,,,,,,,,,,,,,,,,,,,,,,,,,,,,,,,002,2025-07-28_18h56.43.203,CGTriskyDMtask,2022.2.1,59.5761748506674,
,,,,,5,,,,,,,,,0,4,4,4,4,0,4,0,,,,,,,,,,,,,,,,,,,,,,,,,,,,,,,,,,,,,,,,,,,,,,,,,,,,,,,,,496.66268166701775,497.6629565000185,497.6629565000185,498.6621592500014,"[5, 4, 2, 6, 7, 3, 8]",,,,,,,,,,,,,,,,,,,,,,,,,,,,,,,,,,,,,,,,,,,,,,,,,,,,,,,,,,,,,,002,2025-07-28_18h56.43.203,CGTriskyDMtask,2022.2.1,59.5761748506674,
,,,,,5,,,,,,,,,0,4,4,4,5,0,5,0,,,,,,,,,,,,,,,,,,,,,,,,,,,,,,,,,,,,,,,,,,,,,,,,,,,,,,,,,498.6621592500014,499.6621957090101,499.6621957090101,500.6621930419933,"[5, 4, 2, 6, 7, 3, 8]",,,,,,,,,,,,,,,,,,,,,,,,,,,,,,,,,,,,,,,,,,,,,,,,,,,,,,,,,,,,,,002,2025-07-28_18h56.43.203,CGTriskyDMtask,2022.2.1,59.5761748506674,
,,,,,5,,,,,,,,,0,4,4,4,6,0,6,0,,,,,,,,,,,,,,,,,,,,,,,,,,,,,,,,,,,,,,,,,,,,,,,,,,,,,,,,,500.6621930419933,501.6623455840163,501.6623455840163,502.66248075000476,"[5, 4, 2, 6, 7, 3, 8]",,,,,,,,,,,,,,,,,,,,,,,,,,,,,,,,,,,,,,,,,,,,,,,,,,,,,,,,,,,,,,002,2025-07-28_18h56.43.203,CGTriskyDMtask,2022.2.1,59.5761748506674,
,,,,,5,,,,,,,,,0,4,4,4,,,,,,,,,,,,,,,,,,,,,,,,,,,,,,,,,,,,,,,,,,,,,,,,1,,,,,,,,,,,,,,,,,,502.66248075000476,502.66248075000476,502.66248075000476,-0.0005447920120786875,5426738,0.0,-0.39222222222222225,1,0,0,cont_button,509.67955508400337,510.67926408399944,,,,,,,,,,,,,,,,,,,,,,,,,,,,,,,,,,,,,,,,,,,,,,,,,002,2025-07-28_18h56.43.203,CGTriskyDMtask,2022.2.1,59.5761748506674,
,,,,,6,,,,,,,,,0,5,5,5,0,0,0,0,,,,,,,,,,,,,,,,,,,,,,,,,,,,,,,,,,,,,,,,,,,,,,,,,,,,,,,,,510.67926408399944,511.67915283399634,511.6627881670138,512.662870375003,"[4, 6, 5, 8, 7, 1, 9, 3]",,,,,,,,,,,,,,,,,,,,,,,,,,,,,,,,,,,,,,,,,,,,,,,,,,,,,,,,,,,,,,002,2025-07-28_18h56.43.203,CGTriskyDMtask,2022.2.1,59.5761748506674,
,,,,,6,,,,,,,,,0,5,5,5,1,0,1,0,,,,,,,,,,,,,,,,,,,,,,,,,,,,,,,,,,,,,,,,,,,,,,,,,,,,,,,,,512.662870375003,513.6629910420161,513.6629910420161,514.6629886250012,"[4, 6, 5, 8, 7, 1, 9, 3]",,,,,,,,,,,,,,,,,,,,,,,,,,,,,,,,,,,,,,,,,,,,,,,,,,,,,,,,,,,,,,002,2025-07-28_18h56.43.203,CGTriskyDMtask,2022.2.1,59.5761748506674,
,,,,,6,,,,,,,,,0,5,5,5,2,0,2,0,,,,,,,,,,,,,,,,,,,,,,,,,,,,,,,,,,,,,,,,,,,,,,,,,,,,,,,,,514.6629886250012,515.663075709017,515.663075709017,516.6631893750164,"[4, 6, 5, 8, 7, 1, 9, 3]",,,,,,,,,,,,,,,,,,,,,,,,,,,,,,,,,,,,,,,,,,,,,,,,,,,,,,,,,,,,,,002,2025-07-28_18h56.43.203,CGTriskyDMtask,2022.2.1,59.5761748506674,
,,,,,6,,,,,,,,,0,5,5,5,3,0,3,0,,,,,,,,,,,,,,,,,,,,,,,,,,,,,,,,,,,,,,,,,,,,,,,,,,,,,,,,,516.6631893750164,517.6629620000022,517.6629620000022,518.6629877499945,"[4, 6, 5, 8, 7, 1, 9, 3]",,,,,,,,,,,,,,,,,,,,,,,,,,,,,,,,,,,,,,,,,,,,,,,,,,,,,,,,,,,,,,002,2025-07-28_18h56.43.203,CGTriskyDMtask,2022.2.1,59.5761748506674,
,,,,,6,,,,,,,,,0,5,5,5,4,0,4,0,,,,,,,,,,,,,,,,,,,,,,,,,,,,,,,,,,,,,,,,,,,,,,,,,,,,,,,,,518.6629877499945,519.6638131249929,519.6638131249929,520.6635445000138,"[4, 6, 5, 8, 7, 1, 9, 3]",,,,,,,,,,,,,,,,,,,,,,,,,,,,,,,,,,,,,,,,,,,,,,,,,,,,,,,,,,,,,,002,2025-07-28_18h56.43.203,CGTriskyDMtask,2022.2.1,59.5761748506674,
,,,,,6,,,,,,,,,0,5,5,5,5,0,5,0,,,,,,,,,,,,,,,,,,,,,,,,,,,,,,,,,,,,,,,,,,,,,,,,,,,,,,,,,520.6635445000138,521.6640365839994,521.6640365839994,522.664004374994,"[4, 6, 5, 8, 7, 1, 9, 3]",,,,,,,,,,,,,,,,,,,,,,,,,,,,,,,,,,,,,,,,,,,,,,,,,,,,,,,,,,,,,,002,2025-07-28_18h56.43.203,CGTriskyDMtask,2022.2.1,59.5761748506674,
,,,,,6,,,,,,,,,0,5,5,5,6,0,6,0,,,,,,,,,,,,,,,,,,,,,,,,,,,,,,,,,,,,,,,,,,,,,,,,,,,,,,,,,522.664004374994,523.6640830840042,523.6640830840042,524.663682250015,"[4, 6, 5, 8, 7, 1, 9, 3]",,,,,,,,,,,,,,,,,,,,,,,,,,,,,,,,,,,,,,,,,,,,,,,,,,,,,,,,,,,,,,002,2025-07-28_18h56.43.203,CGTriskyDMtask,2022.2.1,59.5761748506674,
,,,,,6,,,,,,,,,0,5,5,5,7,0,7,0,,,,,,,,,,,,,,,,,,,,,,,,,,,,,,,,,,,,,,,,,,,,,,,,,,,,,,,,,524.663682250015,525.6630432090024,525.6630432090024,526.6635839590163,"[4, 6, 5, 8, 7, 1, 9, 3]",,,,,,,,,,,,,,,,,,,,,,,,,,,,,,,,,,,,,,,,,,,,,,,,,,,,,,,,,,,,,,002,2025-07-28_18h56.43.203,CGTriskyDMtask,2022.2.1,59.5761748506674,
,,,,,6,,,,,,,,,0,5,5,5,,,,,,,,,,,,,,,,,,,,,,,,,,,,,,,,,,,,,,,,,,,,,,,,0,,,,,,,,,,,,,,,,,,526.6635839590163,526.6635839590163,526.6635839590163,0.00014000001829117537,4675819,-0.03777777777777778,-0.41333333333333333,1,0,0,cont_button,538.8806113750034,539.8804718340107,,,,,,,,,,,,,,,,,,,,,,,,,,,,,,,,,,,,,,,,,,,,,,,,,002,2025-07-28_18h56.43.203,CGTriskyDMtask,2022.2.1,59.5761748506674,
,,,,,7,,,,,,,,,0,6,6,6,0,0,0,0,,,,,,,,,,,,,,,,,,,,,,,,,,,,,,,,,,,,,,,,,,,,,,,,,,,,,,,,,539.8804718340107,540.8806052090076,540.8639574999979,541.864148209017,"[8, 7, 9, 3, 1, 5, 2, 4]",,,,,,,,,,,,,,,,,,,,,,,,,,,,,,,,,,,,,,,,,,,,,,,,,,,,,,,,,,,,,,002,2025-07-28_18h56.43.203,CGTriskyDMtask,2022.2.1,59.5761748506674,
,,,,,7,,,,,,,,,0,6,6,6,1,0,1,0,,,,,,,,,,,,,,,,,,,,,,,,,,,,,,,,,,,,,,,,,,,,,,,,,,,,,,,,,541.864148209017,542.8640320420091,542.8640320420091,543.864146042004,"[8, 7, 9, 3, 1, 5, 2, 4]",,,,,,,,,,,,,,,,,,,,,,,,,,,,,,,,,,,,,,,,,,,,,,,,,,,,,,,,,,,,,,002,2025-07-28_18h56.43.203,CGTriskyDMtask,2022.2.1,59.5761748506674,
,,,,,7,,,,,,,,,0,6,6,6,2,0,2,0,,,,,,,,,,,,,,,,,,,,,,,,,,,,,,,,,,,,,,,,,,,,,,,,,,,,,,,,,543.864146042004,544.8640791249927,544.8640791249927,545.8645470839983,"[8, 7, 9, 3, 1, 5, 2, 4]",,,,,,,,,,,,,,,,,,,,,,,,,,,,,,,,,,,,,,,,,,,,,,,,,,,,,,,,,,,,,,002,2025-07-28_18h56.43.203,CGTriskyDMtask,2022.2.1,59.5761748506674,
,,,,,7,,,,,,,,,0,6,6,6,3,0,3,0,,,,,,,,,,,,,,,,,,,,,,,,,,,,,,,,,,,,,,,,,,,,,,,,,,,,,,,,,545.8645470839983,546.8642462500138,546.8642462500138,547.8643437089922,"[8, 7, 9, 3, 1, 5, 2, 4]",,,,,,,,,,,,,,,,,,,,,,,,,,,,,,,,,,,,,,,,,,,,,,,,,,,,,,,,,,,,,,002,2025-07-28_18h56.43.203,CGTriskyDMtask,2022.2.1,59.5761748506674,
,,,,,7,,,,,,,,,0,6,6,6,4,0,4,0,,,,,,,,,,,,,,,,,,,,,,,,,,,,,,,,,,,,,,,,,,,,,,,,,,,,,,,,,547.8643437089922,548.8642032089992,548.8642032089992,549.8645276669995,"[8, 7, 9, 3, 1, 5, 2, 4]",,,,,,,,,,,,,,,,,,,,,,,,,,,,,,,,,,,,,,,,,,,,,,,,,,,,,,,,,,,,,,002,2025-07-28_18h56.43.203,CGTriskyDMtask,2022.2.1,59.5761748506674,
,,,,,7,,,,,,,,,0,6,6,6,5,0,5,0,,,,,,,,,,,,,,,,,,,,,,,,,,,,,,,,,,,,,,,,,,,,,,,,,,,,,,,,,549.8645276669995,550.8650611670164,550.8650611670164,551.8647102090181,"[8, 7, 9, 3, 1, 5, 2, 4]",,,,,,,,,,,,,,,,,,,,,,,,,,,,,,,,,,,,,,,,,,,,,,,,,,,,,,,,,,,,,,002,2025-07-28_18h56.43.203,CGTriskyDMtask,2022.2.1,59.5761748506674,
,,,,,7,,,,,,,,,0,6,6,6,6,0,6,0,,,,,,,,,,,,,,,,,,,,,,,,,,,,,,,,,,,,,,,,,,,,,,,,,,,,,,,,,551.8647102090181,552.8649830420036,552.8649830420036,553.8653810840042,"[8, 7, 9, 3, 1, 5, 2, 4]",,,,,,,,,,,,,,,,,,,,,,,,,,,,,,,,,,,,,,,,,,,,,,,,,,,,,,,,,,,,,,002,2025-07-28_18h56.43.203,CGTriskyDMtask,2022.2.1,59.5761748506674,
,,,,,7,,,,,,,,,0,6,6,6,7,0,7,0,,,,,,,,,,,,,,,,,,,,,,,,,,,,,,,,,,,,,,,,,,,,,,,,,,,,,,,,,553.8653810840042,554.8655217920023,554.8655217920023,555.8643445839989,"[8, 7, 9, 3, 1, 5, 2, 4]",,,,,,,,,,,,,,,,,,,,,,,,,,,,,,,,,,,,,,,,,,,,,,,,,,,,,,,,,,,,,,002,2025-07-28_18h56.43.203,CGTriskyDMtask,2022.2.1,59.5761748506674,
,,,,,7,,,,,,,,,0,6,6,6,,,,,,,,,,,,,,,,,,,,,,,,,,,,,,,,,,,,,,,,,,,,,,,,1,,,,,,,,,,,,,,,,,,555.8643445839989,555.8643445839989,555.8643445839989,-0.0004553749749902636,87931524,-0.023333333333333334,-0.38222222222222224,1,0,0,cont_button,562.2145627090067,563.2147479169944,,,,,,,,,,,,,,,,,,,,,,,,,,,,,,,,,,,,,,,,,,,,,,,,,002,2025-07-28_18h56.43.203,CGTriskyDMtask,2022.2.1,59.5761748506674,
,,,,,8,,,,,,,,,0,7,7,7,0,0,0,0,,,,,,,,,,,,,,,,,,,,,,,,,,,,,,,,,,,,,,,,,,,,,,,,,,,,,,,,,563.2147479169944,564.2146562919952,564.1981856250204,565.1983645420114,"[3, 5, 6, 4, 2, 8, 7, 9, 1]",,,,,,,,,,,,,,,,,,,,,,,,,,,,,,,,,,,,,,,,,,,,,,,,,,,,,,,,,,,,,,002,2025-07-28_18h56.43.203,CGTriskyDMtask,2022.2.1,59.5761748506674,
,,,,,8,,,,,,,,,0,7,7,7,1,0,1,0,,,,,,,,,,,,,,,,,,,,,,,,,,,,,,,,,,,,,,,,,,,,,,,,,,,,,,,,,565.1983645420114,566.1995981670043,566.1995981670043,567.2148863750044,"[3, 5, 6, 4, 2, 8, 7, 9, 1]",,,,,,,,,,,,,,,,,,,,,,,,,,,,,,,,,,,,,,,,,,,,,,,,,,,,,,,,,,,,,,002,2025-07-28_18h56.43.203,CGTriskyDMtask,2022.2.1,59.5761748506674,
,,,,,8,,,,,,,,,0,7,7,7,2,0,2,0,,,,,,,,,,,,,,,,,,,,,,,,,,,,,,,,,,,,,,,,,,,,,,,,,,,,,,,,,567.2148863750044,568.2148828339996,568.198918250011,569.1984140000131,"[3, 5, 6, 4, 2, 8, 7, 9, 1]",,,,,,,,,,,,,,,,,,,,,,,,,,,,,,,,,,,,,,,,,,,,,,,,,,,,,,,,,,,,,,002,2025-07-28_18h56.43.203,CGTriskyDMtask,2022.2.1,59.5761748506674,
,,,,,8,,,,,,,,,0,7,7,7,3,0,3,0,,,,,,,,,,,,,,,,,,,,,,,,,,,,,,,,,,,,,,,,,,,,,,,,,,,,,,,,,569.1984140000131,570.1983936670003,570.1983936670003,571.1983981250087,"[3, 5, 6, 4, 2, 8, 7, 9, 1]",,,,,,,,,,,,,,,,,,,,,,,,,,,,,,,,,,,,,,,,,,,,,,,,,,,,,,,,,,,,,,002,2025-07-28_18h56.43.203,CGTriskyDMtask,2022.2.1,59.5761748506674,
,,,,,8,,,,,,,,,0,7,7,7,4,0,4,0,,,,,,,,,,,,,,,,,,,,,,,,,,,,,,,,,,,,,,,,,,,,,,,,,,,,,,,,,571.1983981250087,572.1985708340071,572.1985708340071,573.1983998340147,"[3, 5, 6, 4, 2, 8, 7, 9, 1]",,,,,,,,,,,,,,,,,,,,,,,,,,,,,,,,,,,,,,,,,,,,,,,,,,,,,,,,,,,,,,002,2025-07-28_18h56.43.203,CGTriskyDMtask,2022.2.1,59.5761748506674,
,,,,,8,,,,,,,,,0,7,7,7,5,0,5,0,,,,,,,,,,,,,,,,,,,,,,,,,,,,,,,,,,,,,,,,,,,,,,,,,,,,,,,,,573.1983998340147,574.1984632920066,574.1984632920066,575.1986166250135,"[3, 5, 6, 4, 2, 8, 7, 9, 1]",,,,,,,,,,,,,,,,,,,,,,,,,,,,,,,,,,,,,,,,,,,,,,,,,,,,,,,,,,,,,,002,2025-07-28_18h56.43.203,CGTriskyDMtask,2022.2.1,59.5761748506674,
,,,,,8,,,,,,,,,0,7,7,7,6,0,6,0,,,,,,,,,,,,,,,,,,,,,,,,,,,,,,,,,,,,,,,,,,,,,,,,,,,,,,,,,575.1986166250135,576.1985975420102,576.1985975420102,577.1986700840062,"[3, 5, 6, 4, 2, 8, 7, 9, 1]",,,,,,,,,,,,,,,,,,,,,,,,,,,,,,,,,,,,,,,,,,,,,,,,,,,,,,,,,,,,,,002,2025-07-28_18h56.43.203,CGTriskyDMtask,2022.2.1,59.5761748506674,
,,,,,8,,,,,,,,,0,7,7,7,7,0,7,0,,,,,,,,,,,,,,,,,,,,,,,,,,,,,,,,,,,,,,,,,,,,,,,,,,,,,,,,,577.1986700840062,578.1991723749961,578.1991723749961,579.1987651670061,"[3, 5, 6, 4, 2, 8, 7, 9, 1]",,,,,,,,,,,,,,,,,,,,,,,,,,,,,,,,,,,,,,,,,,,,,,,,,,,,,,,,,,,,,,002,2025-07-28_18h56.43.203,CGTriskyDMtask,2022.2.1,59.5761748506674,
,,,,,8,,,,,,,,,0,7,7,7,8,0,8,0,,,,,,,,,,,,,,,,,,,,,,,,,,,,,,,,,,,,,,,,,,,,,,,,,,,,,,,,,579.1987651670061,580.199111791997,580.199111791997,581.1989672500058,"[3, 5, 6, 4, 2, 8, 7, 9, 1]",,,,,,,,,,,,,,,,,,,,,,,,,,,,,,,,,,,,,,,,,,,,,,,,,,,,,,,,,,,,,,002,2025-07-28_18h56.43.203,CGTriskyDMtask,2022.2.1,59.5761748506674,
,,,,,8,,,,,,,,,0,7,7,7,,,,,,,,,,,,,,,,,,,,,,,,,,,,,,,,,,,,,,,,,,,,,,,,0,,,,,,,,,,,,,,,,,,581.1989672500058,581.1989672500058,581.1989672500058,-7.966702105477452e-05,358647291,-0.02666666666666667,-0.41888888888888887,1,0,0,cont_button,591.0169942089997,592.0161992089998,,,,,,,,,,,,,,,,,,,,,,,,,,,,,,,,,,,,,,,,,,,,,,,,,002,2025-07-28_18h56.43.203,CGTriskyDMtask,2022.2.1,59.5761748506674,
,,,,,9,,,,,,,,,0,8,8,8,0,0,0,0,,,,,,,,,,,,,,,,,,,,,,,,,,,,,,,,,,,,,,,,,,,,,,,,,,,,,,,,,592.0161992089998,593.0160968750133,592.9993861250114,593.999691917008,"[7, 2, 1, 9, 4, 6, 8, 5, 3]",,,,,,,,,,,,,,,,,,,,,,,,,,,,,,,,,,,,,,,,,,,,,,,,,,,,,,,,,,,,,,002,2025-07-28_18h56.43.203,CGTriskyDMtask,2022.2.1,59.5761748506674,
,,,,,9,,,,,,,,,0,8,8,8,1,0,1,0,,,,,,,,,,,,,,,,,,,,,,,,,,,,,,,,,,,,,,,,,,,,,,,,,,,,,,,,,593.999691917008,594.9998942090024,594.9998942090024,596.0003549169924,"[7, 2, 1, 9, 4, 6, 8, 5, 3]",,,,,,,,,,,,,,,,,,,,,,,,,,,,,,,,,,,,,,,,,,,,,,,,,,,,,,,,,,,,,,002,2025-07-28_18h56.43.203,CGTriskyDMtask,2022.2.1,59.5761748506674,
,,,,,9,,,,,,,,,0,8,8,8,2,0,2,0,,,,,,,,,,,,,,,,,,,,,,,,,,,,,,,,,,,,,,,,,,,,,,,,,,,,,,,,,596.0003549169924,597.0001946669945,597.0001946669945,597.9994023750187,"[7, 2, 1, 9, 4, 6, 8, 5, 3]",,,,,,,,,,,,,,,,,,,,,,,,,,,,,,,,,,,,,,,,,,,,,,,,,,,,,,,,,,,,,,002,2025-07-28_18h56.43.203,CGTriskyDMtask,2022.2.1,59.5761748506674,
,,,,,9,,,,,,,,,0,8,8,8,3,0,3,0,,,,,,,,,,,,,,,,,,,,,,,,,,,,,,,,,,,,,,,,,,,,,,,,,,,,,,,,,597.9994023750187,598.9997221250087,598.9997221250087,600.0005871250178,"[7, 2, 1, 9, 4, 6, 8, 5, 3]",,,,,,,,,,,,,,,,,,,,,,,,,,,,,,,,,,,,,,,,,,,,,,,,,,,,,,,,,,,,,,002,2025-07-28_18h56.43.203,CGTriskyDMtask,2022.2.1,59.5761748506674,
,,,,,9,,,,,,,,,0,8,8,8,4,0,4,0,,,,,,,,,,,,,,,,,,,,,,,,,,,,,,,,,,,,,,,,,,,,,,,,,,,,,,,,,600.0005871250178,600.9996110420034,600.9996110420034,602.000222542003,"[7, 2, 1, 9, 4, 6, 8, 5, 3]",,,,,,,,,,,,,,,,,,,,,,,,,,,,,,,,,,,,,,,,,,,,,,,,,,,,,,,,,,,,,,002,2025-07-28_18h56.43.203,CGTriskyDMtask,2022.2.1,59.5761748506674,
,,,,,9,,,,,,,,,0,8,8,8,5,0,5,0,,,,,,,,,,,,,,,,,,,,,,,,,,,,,,,,,,,,,,,,,,,,,,,,,,,,,,,,,602.000222542003,603.0010525420075,603.0010525420075,604.0165093750111,"[7, 2, 1, 9, 4, 6, 8, 5, 3]",,,,,,,,,,,,,,,,,,,,,,,,,,,,,,,,,,,,,,,,,,,,,,,,,,,,,,,,,,,,,,002,2025-07-28_18h56.43.203,CGTriskyDMtask,2022.2.1,59.5761748506674,
,,,,,9,,,,,,,,,0,8,8,8,6,0,6,0,,,,,,,,,,,,,,,,,,,,,,,,,,,,,,,,,,,,,,,,,,,,,,,,,,,,,,,,,604.0165093750111,605.016489917005,605.0002555840183,606.0007191250043,"[7, 2, 1, 9, 4, 6, 8, 5, 3]",,,,,,,,,,,,,,,,,,,,,,,,,,,,,,,,,,,,,,,,,,,,,,,,,,,,,,,,,,,,,,002,2025-07-28_18h56.43.203,CGTriskyDMtask,2022.2.1,59.5761748506674,
,,,,,9,,,,,,,,,0,8,8,8,7,0,7,0,,,,,,,,,,,,,,,,,,,,,,,,,,,,,,,,,,,,,,,,,,,,,,,,,,,,,,,,,606.0007191250043,606.9998793750128,606.9998793750128,608.0015364589926,"[7, 2, 1, 9, 4, 6, 8, 5, 3]",,,,,,,,,,,,,,,,,,,,,,,,,,,,,,,,,,,,,,,,,,,,,,,,,,,,,,,,,,,,,,002,2025-07-28_18h56.43.203,CGTriskyDMtask,2022.2.1,59.5761748506674,
,,,,,9,,,,,,,,,0,8,8,8,8,0,8,0,,,,,,,,,,,,,,,,,,,,,,,,,,,,,,,,,,,,,,,,,,,,,,,,,,,,,,,,,608.0015364589926,609.0001578340016,609.0001578340016,610.0005758340121,"[7, 2, 1, 9, 4, 6, 8, 5, 3]",,,,,,,,,,,,,,,,,,,,,,,,,,,,,,,,,,,,,,,,,,,,,,,,,,,,,,,,,,,,,,002,2025-07-28_18h56.43.203,CGTriskyDMtask,2022.2.1,59.5761748506674,
,,,,,9,,,,,,,,,0,8,8,8,,,,,,,,,,,,,,,,,,,,,,,,,,,,,,,,,,,,,,,,,,,,,,,,0,,,,,,,,,,,,,,,,,,610.0005758340121,610.0005758340121,610.0005758340121,0.0002635830023791641,7219645812,-0.03777777777777778,-0.4077777777777778,1,0,0,cont_button,620.4506585420168,621.4507366670005,,,,,,,,,,,,,,,,,,,,,,,,,,,,,,,,,,,,,,,,,,,,,,,,,002,2025-07-28_18h56.43.203,CGTriskyDMtask,2022.2.1,59.5761748506674,
,,,,,10,,,,,,,,,0,9,9,9,0,0,0,0,,,,,,,,,,,,,,,,,,,,,,,,,,,,,,,,,,,,,,,,,,,,,,,,,,,,,,,,,621.4507366670005,622.4511023749947,622.4511023749947,623.4508784589998,"[9, 7, 4, 5, 2, 8, 1, 3]",,,,,,,,,,,,,,,,,,,,,,,,,,,,,,,,,,,,,,,,,,,,,,,,,,,,,,,,,,,,,,002,2025-07-28_18h56.43.203,CGTriskyDMtask,2022.2.1,59.5761748506674,
,,,,,10,,,,,,,,,0,9,9,9,1,0,1,0,,,,,,,,,,,,,,,,,,,,,,,,,,,,,,,,,,,,,,,,,,,,,,,,,,,,,,,,,623.4508784589998,624.450721125002,624.450721125002,625.4508943750116,"[9, 7, 4, 5, 2, 8, 1, 3]",,,,,,,,,,,,,,,,,,,,,,,,,,,,,,,,,,,,,,,,,,,,,,,,,,,,,,,,,,,,,,002,2025-07-28_18h56.43.203,CGTriskyDMtask,2022.2.1,59.5761748506674,
,,,,,10,,,,,,,,,0,9,9,9,2,0,2,0,,,,,,,,,,,,,,,,,,,,,,,,,,,,,,,,,,,,,,,,,,,,,,,,,,,,,,,,,625.4508943750116,626.4513133750006,626.434872709011,627.4349867500132,"[9, 7, 4, 5, 2, 8, 1, 3]",,,,,,,,,,,,,,,,,,,,,,,,,,,,,,,,,,,,,,,,,,,,,,,,,,,,,,,,,,,,,,002,2025-07-28_18h56.43.203,CGTriskyDMtask,2022.2.1,59.5761748506674,
,,,,,10,,,,,,,,,0,9,9,9,3,0,3,0,,,,,,,,,,,,,,,,,,,,,,,,,,,,,,,,,,,,,,,,,,,,,,,,,,,,,,,,,627.4349867500132,628.4347410839982,628.4347410839982,629.4349593340012,"[9, 7, 4, 5, 2, 8, 1, 3]",,,,,,,,,,,,,,,,,,,,,,,,,,,,,,,,,,,,,,,,,,,,,,,,,,,,,,,,,,,,,,002,2025-07-28_18h56.43.203,CGTriskyDMtask,2022.2.1,59.5761748506674,
,,,,,10,,,,,,,,,0,9,9,9,4,0,4,0,,,,,,,,,,,,,,,,,,,,,,,,,,,,,,,,,,,,,,,,,,,,,,,,,,,,,,,,,629.4349593340012,630.4347744169936,630.4347744169936,631.4345020840119,"[9, 7, 4, 5, 2, 8, 1, 3]",,,,,,,,,,,,,,,,,,,,,,,,,,,,,,,,,,,,,,,,,,,,,,,,,,,,,,,,,,,,,,002,2025-07-28_18h56.43.203,CGTriskyDMtask,2022.2.1,59.5761748506674,
,,,,,10,,,,,,,,,0,9,9,9,5,0,5,0,,,,,,,,,,,,,,,,,,,,,,,,,,,,,,,,,,,,,,,,,,,,,,,,,,,,,,,,,631.4345020840119,632.4349972089985,632.4349972089985,633.4343522090057,"[9, 7, 4, 5, 2, 8, 1, 3]",,,,,,,,,,,,,,,,,,,,,,,,,,,,,,,,,,,,,,,,,,,,,,,,,,,,,,,,,,,,,,002,2025-07-28_18h56.43.203,CGTriskyDMtask,2022.2.1,59.5761748506674,
,,,,,10,,,,,,,,,0,9,9,9,6,0,6,0,,,,,,,,,,,,,,,,,,,,,,,,,,,,,,,,,,,,,,,,,,,,,,,,,,,,,,,,,633.4343522090057,634.4347073750105,634.4347073750105,635.4346728340024,"[9, 7, 4, 5, 2, 8, 1, 3]",,,,,,,,,,,,,,,,,,,,,,,,,,,,,,,,,,,,,,,,,,,,,,,,,,,,,,,,,,,,,,002,2025-07-28_18h56.43.203,CGTriskyDMtask,2022.2.1,59.5761748506674,
,,,,,10,,,,,,,,,0,9,9,9,7,0,7,0,,,,,,,,,,,,,,,,,,,,,,,,,,,,,,,,,,,,,,,,,,,,,,,,,,,,,,,,,635.4346728340024,636.4356145000202,636.4356145000202,637.4346285000211,"[9, 7, 4, 5, 2, 8, 1, 3]",,,,,,,,,,,,,,,,,,,,,,,,,,,,,,,,,,,,,,,,,,,,,,,,,,,,,,,,,,,,,,002,2025-07-28_18h56.43.203,CGTriskyDMtask,2022.2.1,59.5761748506674,
,,,,,10,,,,,,,,,0,9,9,9,,,,,,,,,,,,,,,,,,,,,,,,,,,,,,,,,,,,,,,,,,,,,,,,0,,,,,,,,,,,,,,,,,,637.4346285000211,637.4346285000211,637.4346285000211,-0.0005080419941805303,97458213,-0.03,-0.40444444444444444,1,0,0,cont_button,642.8679057090194,643.8680822089955,,,,,,,,,,,,,,,,,,,,,,,,,,,,,,,,,,,,,,,,,,,,,,,,,002,2025-07-28_18h56.43.203,CGTriskyDMtask,2022.2.1,59.5761748506674,
,,,,,11,,,,,,,,,0,10,10,10,0,0,0,0,,,,,,,,,,,,,,,,,,,,,,,,,,,,,,,,,,,,,,,,,,,,,,,,,,,,,,,,,643.8680822089955,644.8680395840202,644.8680395840202,645.8682330840093,"[9, 1, 8, 3, 6, 2, 4, 5]",,,,,,,,,,,,,,,,,,,,,,,,,,,,,,,,,,,,,,,,,,,,,,,,,,,,,,,,,,,,,,002,2025-07-28_18h56.43.203,CGTriskyDMtask,2022.2.1,59.5761748506674,
,,,,,11,,,,,,,,,0,10,10,10,1,0,1,0,,,,,,,,,,,,,,,,,,,,,,,,,,,,,,,,,,,,,,,,,,,,,,,,,,,,,,,,,645.8682330840093,646.8681384590163,646.8518051250139,647.85161350001,"[9, 1, 8, 3, 6, 2, 4, 5]",,,,,,,,,,,,,,,,,,,,,,,,,,,,,,,,,,,,,,,,,,,,,,,,,,,,,,,,,,,,,,002,2025-07-28_18h56.43.203,CGTriskyDMtask,2022.2.1,59.5761748506674,
,,,,,11,,,,,,,,,0,10,10,10,2,0,2,0,,,,,,,,,,,,,,,,,,,,,,,,,,,,,,,,,,,,,,,,,,,,,,,,,,,,,,,,,647.85161350001,648.8517068749934,648.8517068749934,649.8515192090126,"[9, 1, 8, 3, 6, 2, 4, 5]",,,,,,,,,,,,,,,,,,,,,,,,,,,,,,,,,,,,,,,,,,,,,,,,,,,,,,,,,,,,,,002,2025-07-28_18h56.43.203,CGTriskyDMtask,2022.2.1,59.5761748506674,
,,,,,11,,,,,,,,,0,10,10,10,3,0,3,0,,,,,,,,,,,,,,,,,,,,,,,,,,,,,,,,,,,,,,,,,,,,,,,,,,,,,,,,,649.8515192090126,650.8516981670109,650.8516981670109,651.8516805419931,"[9, 1, 8, 3, 6, 2, 4, 5]",,,,,,,,,,,,,,,,,,,,,,,,,,,,,,,,,,,,,,,,,,,,,,,,,,,,,,,,,,,,,,002,2025-07-28_18h56.43.203,CGTriskyDMtask,2022.2.1,59.5761748506674,
,,,,,11,,,,,,,,,0,10,10,10,4,0,4,0,,,,,,,,,,,,,,,,,,,,,,,,,,,,,,,,,,,,,,,,,,,,,,,,,,,,,,,,,651.8516805419931,652.851937458996,652.851937458996,653.8517460839939,"[9, 1, 8, 3, 6, 2, 4, 5]",,,,,,,,,,,,,,,,,,,,,,,,,,,,,,,,,,,,,,,,,,,,,,,,,,,,,,,,,,,,,,002,2025-07-28_18h56.43.203,CGTriskyDMtask,2022.2.1,59.5761748506674,
,,,,,11,,,,,,,,,0,10,10,10,5,0,5,0,,,,,,,,,,,,,,,,,,,,,,,,,,,,,,,,,,,,,,,,,,,,,,,,,,,,,,,,,653.8517460839939,654.8518302089942,654.8518302089942,655.8517379590194,"[9, 1, 8, 3, 6, 2, 4, 5]",,,,,,,,,,,,,,,,,,,,,,,,,,,,,,,,,,,,,,,,,,,,,,,,,,,,,,,,,,,,,,002,2025-07-28_18h56.43.203,CGTriskyDMtask,2022.2.1,59.5761748506674,
,,,,,11,,,,,,,,,0,10,10,10,6,0,6,0,,,,,,,,,,,,,,,,,,,,,,,,,,,,,,,,,,,,,,,,,,,,,,,,,,,,,,,,,655.8517379590194,656.8517357920064,656.8517357920064,657.8519677089935,"[9, 1, 8, 3, 6, 2, 4, 5]",,,,,,,,,,,,,,,,,,,,,,,,,,,,,,,,,,,,,,,,,,,,,,,,,,,,,,,,,,,,,,002,2025-07-28_18h56.43.203,CGTriskyDMtask,2022.2.1,59.5761748506674,
,,,,,11,,,,,,,,,0,10,10,10,7,0,7,0,,,,,,,,,,,,,,,,,,,,,,,,,,,,,,,,,,,,,,,,,,,,,,,,,,,,,,,,,657.8519677089935,658.852275000012,658.852275000012,659.851973834011,"[9, 1, 8, 3, 6, 2, 4, 5]",,,,,,,,,,,,,,,,,,,,,,,,,,,,,,,,,,,,,,,,,,,,,,,,,,,,,,,,,,,,,,002,2025-07-28_18h56.43.203,CGTriskyDMtask,2022.2.1,59.5761748506674,
,,,,,11,,,,,,,,,0,10,10,10,,,,,,,,,,,,,,,,,,,,,,,,,,,,,,,,,,,,,,,,,,,,,,,,1,,,,,,,,,,,,,,,,,,659.851973834011,659.851973834011,659.851973834011,-0.0004122499958612025,91836245,-0.02,-0.40444444444444444,1,0,0,cont_button,665.8359742500179,666.8361353749933,,,,,,,,,,,,,,,,,,,,,,,,,,,,,,,,,,,,,,,,,,,,,,,,,002,2025-07-28_18h56.43.203,CGTriskyDMtask,2022.2.1,59.5761748506674,
,,,,,12,,,,,,,,,0,11,11,11,0,0,0,0,,,,,,,,,,,,,,,,,,,,,,,,,,,,,,,,,,,,,,,,,,,,,,,,,,,,,,,,,666.8361353749933,667.8356560840039,667.8356560840039,668.8356233749946,"[9, 4, 3, 5, 1, 2, 7, 6, 8]",,,,,,,,,,,,,,,,,,,,,,,,,,,,,,,,,,,,,,,,,,,,,,,,,,,,,,,,,,,,,,002,2025-07-28_18h56.43.203,CGTriskyDMtask,2022.2.1,59.5761748506674,
,,,,,12,,,,,,,,,0,11,11,11,1,0,1,0,,,,,,,,,,,,,,,,,,,,,,,,,,,,,,,,,,,,,,,,,,,,,,,,,,,,,,,,,668.8356233749946,669.8355991670105,669.8355991670105,670.8360185000056,"[9, 4, 3, 5, 1, 2, 7, 6, 8]",,,,,,,,,,,,,,,,,,,,,,,,,,,,,,,,,,,,,,,,,,,,,,,,,,,,,,,,,,,,,,002,2025-07-28_18h56.43.203,CGTriskyDMtask,2022.2.1,59.5761748506674,
,,,,,12,,,,,,,,,0,11,11,11,2,0,2,0,,,,,,,,,,,,,,,,,,,,,,,,,,,,,,,,,,,,,,,,,,,,,,,,,,,,,,,,,670.8360185000056,671.8358996250026,671.819219166995,672.8193358340068,"[9, 4, 3, 5, 1, 2, 7, 6, 8]",,,,,,,,,,,,,,,,,,,,,,,,,,,,,,,,,,,,,,,,,,,,,,,,,,,,,,,,,,,,,,002,2025-07-28_18h56.43.203,CGTriskyDMtask,2022.2.1,59.5761748506674,
,,,,,12,,,,,,,,,0,11,11,11,3,0,3,0,,,,,,,,,,,,,,,,,,,,,,,,,,,,,,,,,,,,,,,,,,,,,,,,,,,,,,,,,672.8193358340068,673.8193759589922,673.8193759589922,674.819965667004,"[9, 4, 3, 5, 1, 2, 7, 6, 8]",,,,,,,,,,,,,,,,,,,,,,,,,,,,,,,,,,,,,,,,,,,,,,,,,,,,,,,,,,,,,,002,2025-07-28_18h56.43.203,CGTriskyDMtask,2022.2.1,59.5761748506674,
,,,,,12,,,,,,,,,0,11,11,11,4,0,4,0,,,,,,,,,,,,,,,,,,,,,,,,,,,,,,,,,,,,,,,,,,,,,,,,,,,,,,,,,674.819965667004,675.8198994999984,675.8198994999984,676.8201130420202,"[9, 4, 3, 5, 1, 2, 7, 6, 8]",,,,,,,,,,,,,,,,,,,,,,,,,,,,,,,,,,,,,,,,,,,,,,,,,,,,,,,,,,,,,,002,2025-07-28_18h56.43.203,CGTriskyDMtask,2022.2.1,59.5761748506674,
,,,,,12,,,,,,,,,0,11,11,11,5,0,5,0,,,,,,,,,,,,,,,,,,,,,,,,,,,,,,,,,,,,,,,,,,,,,,,,,,,,,,,,,676.8201130420202,677.8195134590205,677.8195134590205,678.8200331669941,"[9, 4, 3, 5, 1, 2, 7, 6, 8]",,,,,,,,,,,,,,,,,,,,,,,,,,,,,,,,,,,,,,,,,,,,,,,,,,,,,,,,,,,,,,002,2025-07-28_18h56.43.203,CGTriskyDMtask,2022.2.1,59.5761748506674,
,,,,,12,,,,,,,,,0,11,11,11,6,0,6,0,,,,,,,,,,,,,,,,,,,,,,,,,,,,,,,,,,,,,,,,,,,,,,,,,,,,,,,,,678.8200331669941,679.81975241701,679.81975241701,680.8202838750149,"[9, 4, 3, 5, 1, 2, 7, 6, 8]",,,,,,,,,,,,,,,,,,,,,,,,,,,,,,,,,,,,,,,,,,,,,,,,,,,,,,,,,,,,,,002,2025-07-28_18h56.43.203,CGTriskyDMtask,2022.2.1,59.5761748506674,
,,,,,12,,,,,,,,,0,11,11,11,7,0,7,0,,,,,,,,,,,,,,,,,,,,,,,,,,,,,,,,,,,,,,,,,,,,,,,,,,,,,,,,,680.8202838750149,681.8196559170028,681.8196559170028,682.8197874170146,"[9, 4, 3, 5, 1, 2, 7, 6, 8]",,,,,,,,,,,,,,,,,,,,,,,,,,,,,,,,,,,,,,,,,,,,,,,,,,,,,,,,,,,,,,002,2025-07-28_18h56.43.203,CGTriskyDMtask,2022.2.1,59.5761748506674,
,,,,,12,,,,,,,,,0,11,11,11,8,0,8,0,,,,,,,,,,,,,,,,,,,,,,,,,,,,,,,,,,,,,,,,,,,,,,,,,,,,,,,,,682.8197874170146,683.8196803340106,683.8196803340106,684.8194585000165,"[9, 4, 3, 5, 1, 2, 7, 6, 8]",,,,,,,,,,,,,,,,,,,,,,,,,,,,,,,,,,,,,,,,,,,,,,,,,,,,,,,,,,,,,,002,2025-07-28_18h56.43.203,CGTriskyDMtask,2022.2.1,59.5761748506674,
,,,,,12,,,,,,,,,0,11,11,11,,,,,,,,,,,,,,,,,,,,,,,,,,,,,,,,,,,,,,,,,,,,,,,,0,,,,,,,,,,,,,,,,,,684.8194585000165,684.8194585000165,684.8194585000165,-0.0007113339961506426,943512678,-0.025555555555555557,-0.42333333333333334,1,0,0,cont_button,690.6528955000103,691.6532487920194,,,,,,,,,,,,,,,,,,,,,,,,,,,,,,,,,,,,,,,,,,,,,,,,,002,2025-07-28_18h56.43.203,CGTriskyDMtask,2022.2.1,59.5761748506674,
,,,,,13,,,,,,,,,0,12,12,12,0,0,0,0,,,,,,,,,,,,,,,,,,,,,,,,,,,,,,,,,,,,,,,,,,,,,,,,,,,,,,,,,691.6532487920194,692.6540978340199,692.6373660420068,693.636488624994,"[3, 2, 8, 1, 5, 6, 4, 9, 7]",,,,,,,,,,,,,,,,,,,,,,,,,,,,,,,,,,,,,,,,,,,,,,,,,,,,,,,,,,,,,,002,2025-07-28_18h56.43.203,CGTriskyDMtask,2022.2.1,59.5761748506674,
,,,,,13,,,,,,,,,0,12,12,12,1,0,1,0,,,,,,,,,,,,,,,,,,,,,,,,,,,,,,,,,,,,,,,,,,,,,,,,,,,,,,,,,693.6532845839974,694.653525709,694.653525709,695.6535473340191,"[3, 2, 8, 1, 5, 6, 4, 9, 7]",,,,,,,,,,,,,,,,,,,,,,,,,,,,,,,,,,,,,,,,,,,,,,,,,,,,,,,,,,,,,,002,2025-07-28_18h56.43.203,CGTriskyDMtask,2022.2.1,59.5761748506674,
,,,,,13,,,,,,,,,0,12,12,12,2,0,2,0,,,,,,,,,,,,,,,,,,,,,,,,,,,,,,,,,,,,,,,,,,,,,,,,,,,,,,,,,695.6535473340191,696.6541013749957,696.6541013749957,697.6535370000056,"[3, 2, 8, 1, 5, 6, 4, 9, 7]",,,,,,,,,,,,,,,,,,,,,,,,,,,,,,,,,,,,,,,,,,,,,,,,,,,,,,,,,,,,,,002,2025-07-28_18h56.43.203,CGTriskyDMtask,2022.2.1,59.5761748506674,
,,,,,13,,,,,,,,,0,12,12,12,3,0,3,0,,,,,,,,,,,,,,,,,,,,,,,,,,,,,,,,,,,,,,,,,,,,,,,,,,,,,,,,,697.6535370000056,698.6538204170065,698.6374548750173,699.6371260420128,"[3, 2, 8, 1, 5, 6, 4, 9, 7]",,,,,,,,,,,,,,,,,,,,,,,,,,,,,,,,,,,,,,,,,,,,,,,,,,,,,,,,,,,,,,002,2025-07-28_18h56.43.203,CGTriskyDMtask,2022.2.1,59.5761748506674,
,,,,,13,,,,,,,,,0,12,12,12,4,0,4,0,,,,,,,,,,,,,,,,,,,,,,,,,,,,,,,,,,,,,,,,,,,,,,,,,,,,,,,,,699.6536918340134,700.6538715840143,700.6538715840143,701.6537304170197,"[3, 2, 8, 1, 5, 6, 4, 9, 7]",,,,,,,,,,,,,,,,,,,,,,,,,,,,,,,,,,,,,,,,,,,,,,,,,,,,,,,,,,,,,,002,2025-07-28_18h56.43.203,CGTriskyDMtask,2022.2.1,59.5761748506674,
,,,,,13,,,,,,,,,0,12,12,12,5,0,5,0,,,,,,,,,,,,,,,,,,,,,,,,,,,,,,,,,,,,,,,,,,,,,,,,,,,,,,,,,701.6537304170197,702.6536811249971,702.6536811249971,703.6542947500129,"[3, 2, 8, 1, 5, 6, 4, 9, 7]",,,,,,,,,,,,,,,,,,,,,,,,,,,,,,,,,,,,,,,,,,,,,,,,,,,,,,,,,,,,,,002,2025-07-28_18h56.43.203,CGTriskyDMtask,2022.2.1,59.5761748506674,
,,,,,13,,,,,,,,,0,12,12,12,6,0,6,0,,,,,,,,,,,,,,,,,,,,,,,,,,,,,,,,,,,,,,,,,,,,,,,,,,,,,,,,,703.6542947500129,704.6542112920142,704.6377072090108,705.6379590420111,"[3, 2, 8, 1, 5, 6, 4, 9, 7]",,,,,,,,,,,,,,,,,,,,,,,,,,,,,,,,,,,,,,,,,,,,,,,,,,,,,,,,,,,,,,002,2025-07-28_18h56.43.203,CGTriskyDMtask,2022.2.1,59.5761748506674,
,,,,,13,,,,,,,,,0,12,12,12,7,0,7,0,,,,,,,,,,,,,,,,,,,,,,,,,,,,,,,,,,,,,,,,,,,,,,,,,,,,,,,,,705.6379590420111,706.6376538340119,706.6376538340119,707.6373365840118,"[3, 2, 8, 1, 5, 6, 4, 9, 7]",,,,,,,,,,,,,,,,,,,,,,,,,,,,,,,,,,,,,,,,,,,,,,,,,,,,,,,,,,,,,,002,2025-07-28_18h56.43.203,CGTriskyDMtask,2022.2.1,59.5761748506674,
,,,,,13,,,,,,,,,0,12,12,12,8,0,8,0,,,,,,,,,,,,,,,,,,,,,,,,,,,,,,,,,,,,,,,,,,,,,,,,,,,,,,,,,707.6373365840118,708.6373464589997,708.6373464589997,709.638034292002,"[3, 2, 8, 1, 5, 6, 4, 9, 7]",,,,,,,,,,,,,,,,,,,,,,,,,,,,,,,,,,,,,,,,,,,,,,,,,,,,,,,,,,,,,,002,2025-07-28_18h56.43.203,CGTriskyDMtask,2022.2.1,59.5761748506674,
,,,,,13,,,,,,,,,0,12,12,12,,,,,,,,,,,,,,,,,,,,,,,,,,,,,,,,,,,,,,,,,,,,,,,,1,,,,,,,,,,,,,,,,,,709.638034292002,709.638034292002,709.638034292002,-0.0001517919881734997,328156497,-0.03333333333333333,-0.39444444444444443,1,0,0,cont_button,715.337458791997,716.3386047499953,,,,,,,,,,,,,,,,,,,,,,,,,,,,,,,,,,,,,,,,,,,,,,,,,002,2025-07-28_18h56.43.203,CGTriskyDMtask,2022.2.1,59.5761748506674,
,,,,,14,,,,,,,,,0,13,13,13,0,0,0,0,,,,,,,,,,,,,,,,,,,,,,,,,,,,,,,,,,,,,,,,,,,,,,,,,,,,,,,,,716.3386047499953,717.3378718339955,717.3378718339955,718.3377591250173,"[6, 3, 4, 2, 7, 8, 5, 9, 1, 1]",,,,,,,,,,,,,,,,,,,,,,,,,,,,,,,,,,,,,,,,,,,,,,,,,,,,,,,,,,,,,,002,2025-07-28_18h56.43.203,CGTriskyDMtask,2022.2.1,59.5761748506674,
,,,,,14,,,,,,,,,0,13,13,13,1,0,1,0,,,,,,,,,,,,,,,,,,,,,,,,,,,,,,,,,,,,,,,,,,,,,,,,,,,,,,,,,718.3377591250173,719.3378132920188,719.3213493340008,720.3213183750049,"[6, 3, 4, 2, 7, 8, 5, 9, 1, 1]",,,,,,,,,,,,,,,,,,,,,,,,,,,,,,,,,,,,,,,,,,,,,,,,,,,,,,,,,,,,,,002,2025-07-28_18h56.43.203,CGTriskyDMtask,2022.2.1,59.5761748506674,
,,,,,14,,,,,,,,,0,13,13,13,2,0,2,0,,,,,,,,,,,,,,,,,,,,,,,,,,,,,,,,,,,,,,,,,,,,,,,,,,,,,,,,,720.3380792500102,721.3378130840138,721.3217436670093,722.3220108750102,"[6, 3, 4, 2, 7, 8, 5, 9, 1, 1]",,,,,,,,,,,,,,,,,,,,,,,,,,,,,,,,,,,,,,,,,,,,,,,,,,,,,,,,,,,,,,002,2025-07-28_18h56.43.203,CGTriskyDMtask,2022.2.1,59.5761748506674,
,,,,,14,,,,,,,,,0,13,13,13,3,0,3,0,,,,,,,,,,,,,,,,,,,,,,,,,,,,,,,,,,,,,,,,,,,,,,,,,,,,,,,,,722.338513499999,723.3392520000052,723.3228182090097,724.3222297500179,"[6, 3, 4, 2, 7, 8, 5, 9, 1, 1]",,,,,,,,,,,,,,,,,,,,,,,,,,,,,,,,,,,,,,,,,,,,,,,,,,,,,,,,,,,,,,002,2025-07-28_18h56.43.203,CGTriskyDMtask,2022.2.1,59.5761748506674,
,,,,,14,,,,,,,,,0,13,13,13,4,0,4,0,,,,,,,,,,,,,,,,,,,,,,,,,,,,,,,,,,,,,,,,,,,,,,,,,,,,,,,,,724.3222297500179,725.3222382090171,725.3394764169934,,"[6, 3, 4, 2, 7, 8, 5, 9, 1, 1]",,,,,,,,,,,,,,,,,,,,,,,,,,,,,,,,,,,,,,,,,,,,,,,,,,,,,,,,,,,,,,002,2025-07-28_18h56.43.203,CGTriskyDMtask,2022.2.1,59.5761748506674,
,,,,,14,,,,,,,,,0,13,13,13,5,0,5,0,,,,,,,,,,,,,,,,,,,,,,,,,,,,,,,,,,,,,,,,,,,,,,,,,,,,,,,,,726.3551992920111,727.355179584003,727.3226233340101,728.3221983340045,"[6, 3, 4, 2, 7, 8, 5, 9, 1, 1]",,,,,,,,,,,,,,,,,,,,,,,,,,,,,,,,,,,,,,,,,,,,,,,,,,,,,,,,,,,,,,002,2025-07-28_18h56.43.203,CGTriskyDMtask,2022.2.1,59.5761748506674,
,,,,,14,,,,,,,,,0,13,13,13,6,0,6,0,,,,,,,,,,,,,,,,,,,,,,,,,,,,,,,,,,,,,,,,,,,,,,,,,,,,,,,,,728.3221983340045,729.3220851670194,729.3391028339975,730.3383979590144,"[6, 3, 4, 2, 7, 8, 5, 9, 1, 1]",,,,,,,,,,,,,,,,,,,,,,,,,,,,,,,,,,,,,,,,,,,,,,,,,,,,,,,,,,,,,,002,2025-07-28_18h56.43.203,CGTriskyDMtask,2022.2.1,59.5761748506674,
,,,,,14,,,,,,,,,0,13,13,13,7,0,7,0,,,,,,,,,,,,,,,,,,,,,,,,,,,,,,,,,,,,,,,,,,,,,,,,,,,,,,,,,730.3383979590144,731.3390827090188,731.3390827090188,732.3383274170046,"[6, 3, 4, 2, 7, 8, 5, 9, 1, 1]",,,,,,,,,,,,,,,,,,,,,,,,,,,,,,,,,,,,,,,,,,,,,,,,,,,,,,,,,,,,,,002,2025-07-28_18h56.43.203,CGTriskyDMtask,2022.2.1,59.5761748506674,
,,,,,14,,,,,,,,,0,13,13,13,8,0,8,0,,,,,,,,,,,,,,,,,,,,,,,,,,,,,,,,,,,,,,,,,,,,,,,,,,,,,,,,,732.3383274170046,733.3392775840184,733.3218086670095,734.3217526249937,"[6, 3, 4, 2, 7, 8, 5, 9, 1, 1]",,,,,,,,,,,,,,,,,,,,,,,,,,,,,,,,,,,,,,,,,,,,,,,,,,,,,,,,,,,,,,002,2025-07-28_18h56.43.203,CGTriskyDMtask,2022.2.1,59.5761748506674,
,,,,,14,,,,,,,,,0,13,13,13,9,0,9,0,,,,,,,,,,,,,,,,,,,,,,,,,,,,,,,,,,,,,,,,,,,,,,,,,,,,,,,,,734.3217526249937,735.3219000000099,735.3219000000099,736.3219481669948,"[6, 3, 4, 2, 7, 8, 5, 9, 1, 1]",,,,,,,,,,,,,,,,,,,,,,,,,,,,,,,,,,,,,,,,,,,,,,,,,,,,,,,,,,,,,,002,2025-07-28_18h56.43.203,CGTriskyDMtask,2022.2.1,59.5761748506674,
,,,,,14,,,,,,,,,0,13,13,13,,,,,,,,,,,,,,,,,,,,,,,,,,,,,,,,,,,,,,,,,,,,,,,,0,,,,,,,,,,,,,,,,,,736.3219481669948,736.3219481669948,736.3219481669948,-0.0006824159936513752,6347285911,-0.06111111111111111,-0.40555555555555556,1,0,0,cont_button,742.3554068749945,743.3559668750095,,,,,,,,,,,,,,,,,,,,,,,,,,,,,,,,,,,,,,,,,,,,,,,,,002,2025-07-28_18h56.43.203,CGTriskyDMtask,2022.2.1,59.5761748506674,
,,,,,,,,,,,,,,,,,,,,,,,,,,,,,,,,,,,,,,,,,,,,,,,,,,,,,,,,,,,,,,,,,,,,,,,,,,,,,,,,,,,,,,,,,,,,,,,,743.3559668750095,743.3559668750095,return,3.584748708002735,,,,,,,,,,,,,,,,,,,,,,,,,,,,,,,,,,,,,,,,,,,,,002,2025-07-28_18h56.43.203,CGTriskyDMtask,2022.2.1,59.5761748506674,
,,,,,,,,,,,,,,,,,,,,,,,,,,,,,,,,,,,,,,,,,,,,,,,,,,,,,,,,,,,,,,,,,,,,,,,,,,,,,,,,,,,,,,,,,,,,,,,,,,,,746.9723697919981,746.9723697919981,return,22.555906375026098,,,,,,,,,,,,,,,,,,,,,,,,,,,,,,,,,,,,,,,,,002,2025-07-28_18h56.43.203,CGTriskyDMtask,2022.2.1,59.5761748506674,
3,342,24,2,42,,,,,,,,,,,,,,,,,,0,0,0,0,,,,,,,,,,,,,,,,,,,,,,,,,,,,,,,,,,,,,,,,1,,,,,,,,,,,,,,,,,,,,,,,,,,,,,,,,,,,,,,,771.5568560000102,772.5566735420143,772.5566735420143,773.5570493749983,773.5570493749983,773.5570493749983,773.5570493749983,-0.00013183298869989812,42,-0.04555555555555556,-0.4177777777777778,1,0,0,cont_buttonPractice_2,775.3404290839972,776.3402056250197,,,,,,,,,,,,,,,,,,,,,,,,002,2025-07-28_18h56.43.203,CGTriskyDMtask,2022.2.1,59.5761748506674,
3,937,73,2,37,,,,,,,,,,,,,,,,,,0,1,1,1,,,,,,,,,,,,,,,,,,,,,,,,,,,,,,,,,,,,,,,,1,,,,,,,,,,,,,,,,,,,,,,,,,,,,,,,,,,,,,,,778.3402957090002,779.340279666998,779.340279666998,780.3403735420143,780.3403735420143,780.3403735420143,780.3403735420143,-3.383299917913973e-05,37,-0.044444444444444446,-0.41,1,0,0,cont_buttonPractice_2,783.0571841250057,784.0572387500142,,,,,,,,,,,,,,,,,,,,,,,,002,2025-07-28_18h56.43.203,CGTriskyDMtask,2022.2.1,59.5761748506674,
,,,,,,,,,,,,,,,,,,,,,,,,,,,,,,,,,,,,,,,,,,,,,,,,,,,,,,,,,,,,,,,,,,,,,,,,,,,,,,,,,,,,,,,,,,,,,,,,,,,,,,,,,,,,,,,,,,,,,,,,,784.0572387500142,784.0572387500142,return,1.6741499159834348,,,,,,,,,,,,,,,,,,,,002,2025-07-28_18h56.43.203,CGTriskyDMtask,2022.2.1,59.5761748506674,
,,,,,1,,,,,,,,,,,,,,,,,,,,,,,,,0,0,0,0,0,0,0,0,,,,,,,,,,,,,,,,,,,,,,,,,,,,,,,,,,,,,,,,,,,,,"[8, 6]",,,,,,,,,,,,,,,,,,,,,,,,,,,,,,,,,,,,,,,,,,,785.7585096670082,786.757099459006,786.7738650840183,787.7582763750106,,,,,,,,,,,,,,,,002,2025-07-28_18h56.43.203,CGTriskyDMtask,2022.2.1,59.5761748506674,
,,,,,1,,,,,,,,,,,,,,,,,,,,,,,,,0,0,0,0,1,0,1,0,,,,,,,,,,,,,,,,,,,,,,,,,,,,,,,,,,,,,,,,,,,,,"[8, 6]",,,,,,,,,,,,,,,,,,,,,,,,,,,,,,,,,,,,,,,,,,,787.7582763750106,788.7574662500119,788.7574662500119,789.7577600840013,,,,,,,,,,,,,,,,002,2025-07-28_18h56.43.203,CGTriskyDMtask,2022.2.1,59.5761748506674,
,,,,,1,,,,,,,,,,,,,,,,,,,,,,,,,0,0,0,0,,,,,,,,,,,,,,,,,,,,,,,,,,,,,,,,1,,,,,,,,,,,,,,,,,,,,,,,,,,,,,,,,,,,,,,,,,,,,,,,,,,,,,,,,,,,,,,,,789.7577600840013,789.7577600840013,789.7577600840013,0.008592832979047671,68,0.006666666666666667,-0.41333333333333333,1,0,0,cont_buttonBS,791.2910375840147,792.2908530840068,,,002,2025-07-28_18h56.43.203,CGTriskyDMtask,2022.2.1,59.5761748506674,
,,,,,2,,,,,,,,,,,,,,,,,,,,,,,,,0,1,1,1,0,0,0,0,,,,,,,,,,,,,,,,,,,,,,,,,,,,,,,,,,,,,,,,,,,,,"[1, 4, 6]",,,,,,,,,,,,,,,,,,,,,,,,,,,,,,,,,,,,,,,,,,,792.2908530840068,793.2908568750136,793.2908568750136,794.2916158750013,,,,,,,,,,,,,,,,002,2025-07-28_18h56.43.203,CGTriskyDMtask,2022.2.1,59.5761748506674,
,,,,,2,,,,,,,,,,,,,,,,,,,,,,,,,0,1,1,1,1,0,1,0,,,,,,,,,,,,,,,,,,,,,,,,,,,,,,,,,,,,,,,,,,,,,"[1, 4, 6]",,,,,,,,,,,,,,,,,,,,,,,,,,,,,,,,,,,,,,,,,,,794.2916158750013,795.2909870840085,795.2909870840085,796.291049417021,,,,,,,,,,,,,,,,002,2025-07-28_18h56.43.203,CGTriskyDMtask,2022.2.1,59.5761748506674,
,,,,,2,,,,,,,,,,,,,,,,,,,,,,,,,0,1,1,1,2,0,2,0,,,,,,,,,,,,,,,,,,,,,,,,,,,,,,,,,,,,,,,,,,,,,"[1, 4, 6]",,,,,,,,,,,,,,,,,,,,,,,,,,,,,,,,,,,,,,,,,,,796.291049417021,797.2743625000003,797.2914617090137,798.2742315840151,,,,,,,,,,,,,,,,002,2025-07-28_18h56.43.203,CGTriskyDMtask,2022.2.1,59.5761748506674,
,,,,,2,,,,,,,,,,,,,,,,,,,,,,,,,0,1,1,1,,,,,,,,,,,,,,,,,,,,,,,,,,,,,,,,1,,,,,,,,,,,,,,,,,,,,,,,,,,,,,,,,,,,,,,,,,,,,,,,,,,,,,,,,,,,,,,,,798.2742315840151,798.2742315840151,798.2742315840151,0.01620841701515019,641,-0.022222222222222223,-0.4255555555555556,1,0,0,cont_buttonBS,799.8745279590075,800.8750343339925,,,002,2025-07-28_18h56.43.203,CGTriskyDMtask,2022.2.1,59.5761748506674,
,,,,,3,,,,,,,,,,,,,,,,,,,,,,,,,0,2,2,2,0,0,0,0,,,,,,,,,,,,,,,,,,,,,,,,,,,,,,,,,,,,,,,,,,,,,"[2, 5, 7, 8]",,,,,,,,,,,,,,,,,,,,,,,,,,,,,,,,,,,,,,,,,,,800.8750343339925,801.8744149169943,801.8744149169943,802.8751643339929,,,,,,,,,,,,,,,,002,2025-07-28_18h56.43.203,CGTriskyDMtask,2022.2.1,59.5761748506674,
,,,,,3,,,,,,,,,,,,,,,,,,,,,,,,,0,2,2,2,1,0,1,0,,,,,,,,,,,,,,,,,,,,,,,,,,,,,,,,,,,,,,,,,,,,,"[2, 5, 7, 8]",,,,,,,,,,,,,,,,,,,,,,,,,,,,,,,,,,,,,,,,,,,802.8751643339929,803.8747662499954,803.8747662499954,804.8747681670066,,,,,,,,,,,,,,,,002,2025-07-28_18h56.43.203,CGTriskyDMtask,2022.2.1,59.5761748506674,
,,,,,3,,,,,,,,,,,,,,,,,,,,,,,,,0,2,2,2,2,0,2,0,,,,,,,,,,,,,,,,,,,,,,,,,,,,,,,,,,,,,,,,,,,,,"[2, 5, 7, 8]",,,,,,,,,,,,,,,,,,,,,,,,,,,,,,,,,,,,,,,,,,,804.8747681670066,805.8747486670036,805.8747486670036,806.8748429590196,,,,,,,,,,,,,,,,002,2025-07-28_18h56.43.203,CGTriskyDMtask,2022.2.1,59.5761748506674,
,,,,,3,,,,,,,,,,,,,,,,,,,,,,,,,0,2,2,2,3,0,3,0,,,,,,,,,,,,,,,,,,,,,,,,,,,,,,,,,,,,,,,,,,,,,"[2, 5, 7, 8]",,,,,,,,,,,,,,,,,,,,,,,,,,,,,,,,,,,,,,,,,,,806.8748429590196,807.8751690839999,807.8751690839999,808.8752320000203,,,,,,,,,,,,,,,,002,2025-07-28_18h56.43.203,CGTriskyDMtask,2022.2.1,59.5761748506674,
,,,,,3,,,,,,,,,,,,,,,,,,,,,,,,,0,2,2,2,,,,,,,,,,,,,,,,,,,,,,,,,,,,,,,,1,,,,,,,,,,,,,,,,,,,,,,,,,,,,,,,,,,,,,,,,,,,,,,,,,,,,,,,,,,,,,,,,808.8752320000203,808.8752320000203,808.8752320000203,-0.0002901660045608878,8752,-0.042222222222222223,-0.4111111111111111,1,0,0,cont_buttonBS,812.6417481669923,813.6416180420201,,,002,2025-07-28_18h56.43.203,CGTriskyDMtask,2022.2.1,59.5761748506674,
,,,,,4,,,,,,,,,,,,,,,,,,,,,,,,,0,3,3,3,0,0,0,0,,,,,,,,,,,,,,,,,,,,,,,,,,,,,,,,,,,,,,,,,,,,,"[4, 7, 8, 5, 9]",,,,,,,,,,,,,,,,,,,,,,,,,,,,,,,,,,,,,,,,,,,813.6416180420201,814.6252450839966,814.6416675420187,815.625610624993,,,,,,,,,,,,,,,,002,2025-07-28_18h56.43.203,CGTriskyDMtask,2022.2.1,59.5761748506674,
,,,,,4,,,,,,,,,,,,,,,,,,,,,,,,,0,3,3,3,1,0,1,0,,,,,,,,,,,,,,,,,,,,,,,,,,,,,,,,,,,,,,,,,,,,,"[4, 7, 8, 5, 9]",,,,,,,,,,,,,,,,,,,,,,,,,,,,,,,,,,,,,,,,,,,815.625610624993,816.6260288339981,816.6260288339981,817.6252890000178,,,,,,,,,,,,,,,,002,2025-07-28_18h56.43.203,CGTriskyDMtask,2022.2.1,59.5761748506674,
,,,,,4,,,,,,,,,,,,,,,,,,,,,,,,,0,3,3,3,2,0,2,0,,,,,,,,,,,,,,,,,,,,,,,,,,,,,,,,,,,,,,,,,,,,,"[4, 7, 8, 5, 9]",,,,,,,,,,,,,,,,,,,,,,,,,,,,,,,,,,,,,,,,,,,817.6252890000178,818.6249586670019,818.6249586670019,819.6252260420006,,,,,,,,,,,,,,,,002,2025-07-28_18h56.43.203,CGTriskyDMtask,2022.2.1,59.5761748506674,
,,,,,4,,,,,,,,,,,,,,,,,,,,,,,,,0,3,3,3,3,0,3,0,,,,,,,,,,,,,,,,,,,,,,,,,,,,,,,,,,,,,,,,,,,,,"[4, 7, 8, 5, 9]",,,,,,,,,,,,,,,,,,,,,,,,,,,,,,,,,,,,,,,,,,,819.6252260420006,820.6259833340009,820.6259833340009,821.6252752500004,,,,,,,,,,,,,,,,002,2025-07-28_18h56.43.203,CGTriskyDMtask,2022.2.1,59.5761748506674,
,,,,,4,,,,,,,,,,,,,,,,,,,,,,,,,0,3,3,3,4,0,4,0,,,,,,,,,,,,,,,,,,,,,,,,,,,,,,,,,,,,,,,,,,,,,"[4, 7, 8, 5, 9]",,,,,,,,,,,,,,,,,,,,,,,,,,,,,,,,,,,,,,,,,,,821.6252752500004,822.6253202090156,822.6253202090156,823.6255022090045,,,,,,,,,,,,,,,,002,2025-07-28_18h56.43.203,CGTriskyDMtask,2022.2.1,59.5761748506674,
,,,,,4,,,,,,,,,,,,,,,,,,,,,,,,,0,3,3,3,,,,,,,,,,,,,,,,,,,,,,,,,,,,,,,,1,,,,,,,,,,,,,,,,,,,,,,,,,,,,,,,,,,,,,,,,,,,,,,,,,,,,,,,,,,,,,,,,823.6255022090045,823.6255022090045,823.6255022090045,-0.0003650000144261867,95874,-0.07555555555555556,-0.42,1,0,0,cont_buttonBS,827.092181584012,828.0922354590148,,,002,2025-07-28_18h56.43.203,CGTriskyDMtask,2022.2.1,59.5761748506674,
,,,,,5,,,,,,,,,,,,,,,,,,,,,,,,,0,4,4,4,0,0,0,0,,,,,,,,,,,,,,,,,,,,,,,,,,,,,,,,,,,,,,,,,,,,,"[6, 7, 5, 4, 8, 2]",,,,,,,,,,,,,,,,,,,,,,,,,,,,,,,,,,,,,,,,,,,828.0922354590148,829.0924327500106,829.0924327500106,830.0924344590167,,,,,,,,,,,,,,,,002,2025-07-28_18h56.43.203,CGTriskyDMtask,2022.2.1,59.5761748506674,
,,,,,5,,,,,,,,,,,,,,,,,,,,,,,,,0,4,4,4,1,0,1,0,,,,,,,,,,,,,,,,,,,,,,,,,,,,,,,,,,,,,,,,,,,,,"[6, 7, 5, 4, 8, 2]",,,,,,,,,,,,,,,,,,,,,,,,,,,,,,,,,,,,,,,,,,,830.0924344590167,831.0923401250038,831.0923401250038,832.092857709009,,,,,,,,,,,,,,,,002,2025-07-28_18h56.43.203,CGTriskyDMtask,2022.2.1,59.5761748506674,
,,,,,5,,,,,,,,,,,,,,,,,,,,,,,,,0,4,4,4,2,0,2,0,,,,,,,,,,,,,,,,,,,,,,,,,,,,,,,,,,,,,,,,,,,,,"[6, 7, 5, 4, 8, 2]",,,,,,,,,,,,,,,,,,,,,,,,,,,,,,,,,,,,,,,,,,,832.092857709009,833.0924853339966,833.0924853339966,834.0935785420006,,,,,,,,,,,,,,,,002,2025-07-28_18h56.43.203,CGTriskyDMtask,2022.2.1,59.5761748506674,
,,,,,5,,,,,,,,,,,,,,,,,,,,,,,,,0,4,4,4,3,0,3,0,,,,,,,,,,,,,,,,,,,,,,,,,,,,,,,,,,,,,,,,,,,,,"[6, 7, 5, 4, 8, 2]",,,,,,,,,,,,,,,,,,,,,,,,,,,,,,,,,,,,,,,,,,,834.0935785420006,835.0759899590048,835.0933372919972,836.0758470000001,,,,,,,,,,,,,,,,002,2025-07-28_18h56.43.203,CGTriskyDMtask,2022.2.1,59.5761748506674,
,,,,,5,,,,,,,,,,,,,,,,,,,,,,,,,0,4,4,4,4,0,4,0,,,,,,,,,,,,,,,,,,,,,,,,,,,,,,,,,,,,,,,,,,,,,"[6, 7, 5, 4, 8, 2]",,,,,,,,,,,,,,,,,,,,,,,,,,,,,,,,,,,,,,,,,,,836.0926307500049,837.0926064590167,837.0926064590167,838.0934605840011,,,,,,,,,,,,,,,,002,2025-07-28_18h56.43.203,CGTriskyDMtask,2022.2.1,59.5761748506674,
,,,,,5,,,,,,,,,,,,,,,,,,,,,,,,,0,4,4,4,5,0,5,0,,,,,,,,,,,,,,,,,,,,,,,,,,,,,,,,,,,,,,,,,,,,,"[6, 7, 5, 4, 8, 2]",,,,,,,,,,,,,,,,,,,,,,,,,,,,,,,,,,,,,,,,,,,838.0934605840011,839.0934243340162,839.0934243340162,840.0929801670136,,,,,,,,,,,,,,,,002,2025-07-28_18h56.43.203,CGTriskyDMtask,2022.2.1,59.5761748506674,
,,,,,5,,,,,,,,,,,,,,,,,,,,,,,,,0,4,4,4,,,,,,,,,,,,,,,,,,,,,,,,,,,,,,,,1,,,,,,,,,,,,,,,,,,,,,,,,,,,,,,,,,,,,,,,,,,,,,,,,,,,,,,,,,,,,,,,,840.0929801670136,840.0929801670136,840.0929801670136,0.00027395901270210743,284576,-0.04888888888888889,-0.3988888888888889,1,0,0,cont_buttonBS,845.6763873340096,846.6764524170139,,,002,2025-07-28_18h56.43.203,CGTriskyDMtask,2022.2.1,59.5761748506674,
,,,,,6,,,,,,,,,,,,,,,,,,,,,,,,,0,5,5,5,0,0,0,0,,,,,,,,,,,,,,,,,,,,,,,,,,,,,,,,,,,,,,,,,,,,,"[3, 7, 2, 6, 1, 4, 5]",,,,,,,,,,,,,,,,,,,,,,,,,,,,,,,,,,,,,,,,,,,846.6764524170139,847.6763492500177,847.6763492500177,848.6764998750004,,,,,,,,,,,,,,,,002,2025-07-28_18h56.43.203,CGTriskyDMtask,2022.2.1,59.5761748506674,
,,,,,6,,,,,,,,,,,,,,,,,,,,,,,,,0,5,5,5,1,0,1,0,,,,,,,,,,,,,,,,,,,,,,,,,,,,,,,,,,,,,,,,,,,,,"[3, 7, 2, 6, 1, 4, 5]",,,,,,,,,,,,,,,,,,,,,,,,,,,,,,,,,,,,,,,,,,,848.6764998750004,849.6778828749957,849.6778828749957,,,,,,,,,,,,,,,,,002,2025-07-28_18h56.43.203,CGTriskyDMtask,2022.2.1,59.5761748506674,
,,,,,6,,,,,,,,,,,,,,,,,,,,,,,,,0,5,5,5,2,0,2,0,,,,,,,,,,,,,,,,,,,,,,,,,,,,,,,,,,,,,,,,,,,,,"[3, 7, 2, 6, 1, 4, 5]",,,,,,,,,,,,,,,,,,,,,,,,,,,,,,,,,,,,,,,,,,,850.6933202090149,851.676672542002,851.6934943750093,852.6773844590061,,,,,,,,,,,,,,,,002,2025-07-28_18h56.43.203,CGTriskyDMtask,2022.2.1,59.5761748506674,
,,,,,6,,,,,,,,,,,,,,,,,,,,,,,,,0,5,5,5,3,0,3,0,,,,,,,,,,,,,,,,,,,,,,,,,,,,,,,,,,,,,,,,,,,,,"[3, 7, 2, 6, 1, 4, 5]",,,,,,,,,,,,,,,,,,,,,,,,,,,,,,,,,,,,,,,,,,,852.6773844590061,853.6767417920055,853.6767417920055,854.6773249999969,,,,,,,,,,,,,,,,002,2025-07-28_18h56.43.203,CGTriskyDMtask,2022.2.1,59.5761748506674,
,,,,,6,,,,,,,,,,,,,,,,,,,,,,,,,0,5,5,5,4,0,4,0,,,,,,,,,,,,,,,,,,,,,,,,,,,,,,,,,,,,,,,,,,,,,"[3, 7, 2, 6, 1, 4, 5]",,,,,,,,,,,,,,,,,,,,,,,,,,,,,,,,,,,,,,,,,,,854.6773249999969,855.678109667002,855.678109667002,856.6779467090091,,,,,,,,,,,,,,,,002,2025-07-28_18h56.43.203,CGTriskyDMtask,2022.2.1,59.5761748506674,
,,,,,6,,,,,,,,,,,,,,,,,,,,,,,,,0,5,5,5,5,0,5,0,,,,,,,,,,,,,,,,,,,,,,,,,,,,,,,,,,,,,,,,,,,,,"[3, 7, 2, 6, 1, 4, 5]",,,,,,,,,,,,,,,,,,,,,,,,,,,,,,,,,,,,,,,,,,,856.6779467090091,857.6600844589993,857.6933984589996,858.6611443750153,,,,,,,,,,,,,,,,002,2025-07-28_18h56.43.203,CGTriskyDMtask,2022.2.1,59.5761748506674,
,,,,,6,,,,,,,,,,,,,,,,,,,,,,,,,0,5,5,5,6,0,6,0,,,,,,,,,,,,,,,,,,,,,,,,,,,,,,,,,,,,,,,,,,,,,"[3, 7, 2, 6, 1, 4, 5]",,,,,,,,,,,,,,,,,,,,,,,,,,,,,,,,,,,,,,,,,,,858.6611443750153,859.6604456670175,859.6604456670175,860.6605927089986,,,,,,,,,,,,,,,,002,2025-07-28_18h56.43.203,CGTriskyDMtask,2022.2.1,59.5761748506674,
,,,,,6,,,,,,,,,,,,,,,,,,,,,,,,,0,5,5,5,,,,,,,,,,,,,,,,,,,,,,,,,,,,,,,,0,,,,,,,,,,,,,,,,,,,,,,,,,,,,,,,,,,,,,,,,,,,,,,,,,,,,,,,,,,,,,,,,860.6605927089986,860.6605927089986,860.6605927089986,-0.0005977500113658607,5412673,-0.07,-0.39111111111111113,1,0,0,cont_buttonBS,865.743859750015,866.7451396250108,,,002,2025-07-28_18h56.43.203,CGTriskyDMtask,2022.2.1,59.5761748506674,
,,,,,7,,,,,,,,,,,,,,,,,,,,,,,,,0,6,6,6,0,0,0,0,,,,,,,,,,,,,,,,,,,,,,,,,,,,,,,,,,,,,,,,,,,,,"[6, 5, 7, 8, 2, 9, 3]",,,,,,,,,,,,,,,,,,,,,,,,,,,,,,,,,,,,,,,,,,,866.7451396250108,867.7275425420085,867.744190708996,868.7282242499932,,,,,,,,,,,,,,,,002,2025-07-28_18h56.43.203,CGTriskyDMtask,2022.2.1,59.5761748506674,
,,,,,7,,,,,,,,,,,,,,,,,,,,,,,,,0,6,6,6,1,0,1,0,,,,,,,,,,,,,,,,,,,,,,,,,,,,,,,,,,,,,,,,,,,,,"[6, 5, 7, 8, 2, 9, 3]",,,,,,,,,,,,,,,,,,,,,,,,,,,,,,,,,,,,,,,,,,,868.7282242499932,869.7273100840102,869.7273100840102,870.7282992500113,,,,,,,,,,,,,,,,002,2025-07-28_18h56.43.203,CGTriskyDMtask,2022.2.1,59.5761748506674,
,,,,,7,,,,,,,,,,,,,,,,,,,,,,,,,0,6,6,6,2,0,2,0,,,,,,,,,,,,,,,,,,,,,,,,,,,,,,,,,,,,,,,,,,,,,"[6, 5, 7, 8, 2, 9, 3]",,,,,,,,,,,,,,,,,,,,,,,,,,,,,,,,,,,,,,,,,,,870.7282992500113,871.728013999993,871.728013999993,872.7275170000212,,,,,,,,,,,,,,,,002,2025-07-28_18h56.43.203,CGTriskyDMtask,2022.2.1,59.5761748506674,
,,,,,7,,,,,,,,,,,,,,,,,,,,,,,,,0,6,6,6,3,0,3,0,,,,,,,,,,,,,,,,,,,,,,,,,,,,,,,,,,,,,,,,,,,,,"[6, 5, 7, 8, 2, 9, 3]",,,,,,,,,,,,,,,,,,,,,,,,,,,,,,,,,,,,,,,,,,,872.7275170000212,873.7279137920123,873.7279137920123,874.7276375000074,,,,,,,,,,,,,,,,002,2025-07-28_18h56.43.203,CGTriskyDMtask,2022.2.1,59.5761748506674,
,,,,,7,,,,,,,,,,,,,,,,,,,,,,,,,0,6,6,6,4,0,4,0,,,,,,,,,,,,,,,,,,,,,,,,,,,,,,,,,,,,,,,,,,,,,"[6, 5, 7, 8, 2, 9, 3]",,,,,,,,,,,,,,,,,,,,,,,,,,,,,,,,,,,,,,,,,,,874.7441899169935,875.7284554170037,875.7442455840064,876.7289565420069,,,,,,,,,,,,,,,,002,2025-07-28_18h56.43.203,CGTriskyDMtask,2022.2.1,59.5761748506674,
,,,,,7,,,,,,,,,,,,,,,,,,,,,,,,,0,6,6,6,5,0,5,0,,,,,,,,,,,,,,,,,,,,,,,,,,,,,,,,,,,,,,,,,,,,,"[6, 5, 7, 8, 2, 9, 3]",,,,,,,,,,,,,,,,,,,,,,,,,,,,,,,,,,,,,,,,,,,876.7289565420069,877.7285551670066,877.7449452090077,878.7278070420143,,,,,,,,,,,,,,,,002,2025-07-28_18h56.43.203,CGTriskyDMtask,2022.2.1,59.5761748506674,
,,,,,7,,,,,,,,,,,,,,,,,,,,,,,,,0,6,6,6,6,0,6,0,,,,,,,,,,,,,,,,,,,,,,,,,,,,,,,,,,,,,,,,,,,,,"[6, 5, 7, 8, 2, 9, 3]",,,,,,,,,,,,,,,,,,,,,,,,,,,,,,,,,,,,,,,,,,,878.7278070420143,879.7281762089988,879.7281762089988,880.7281725840003,,,,,,,,,,,,,,,,002,2025-07-28_18h56.43.203,CGTriskyDMtask,2022.2.1,59.5761748506674,
,,,,,7,,,,,,,,,,,,,,,,,,,,,,,,,0,6,6,6,,,,,,,,,,,,,,,,,,,,,,,,,,,,,,,,1,,,,,,,,,,,,,,,,,,,,,,,,,,,,,,,,,,,,,,,,,,,,,,,,,,,,,,,,,,,,,,,,880.7281725840003,880.7281725840003,880.7281725840003,-0.00015291699673980474,3928756,0.05333333333333334,-0.3988888888888889,1,0,0,cont_buttonBS,885.9276822500105,886.9279803750105,,,002,2025-07-28_18h56.43.203,CGTriskyDMtask,2022.2.1,59.5761748506674,
,,,,,8,,,,,,,,,,,,,,,,,,,,,,,,,0,7,7,7,0,0,0,0,,,,,,,,,,,,,,,,,,,,,,,,,,,,,,,,,,,,,,,,,,,,,"[5, 7, 2, 9, 3, 4, 8, 6]",,,,,,,,,,,,,,,,,,,,,,,,,,,,,,,,,,,,,,,,,,,886.9279803750105,887.9282441250107,887.9282441250107,888.9281200840196,,,,,,,,,,,,,,,,002,2025-07-28_18h56.43.203,CGTriskyDMtask,2022.2.1,59.5761748506674,
,,,,,8,,,,,,,,,,,,,,,,,,,,,,,,,0,7,7,7,1,0,1,0,,,,,,,,,,,,,,,,,,,,,,,,,,,,,,,,,,,,,,,,,,,,,"[5, 7, 2, 9, 3, 4, 8, 6]",,,,,,,,,,,,,,,,,,,,,,,,,,,,,,,,,,,,,,,,,,,888.9281200840196,889.911346125009,889.9280859169958,890.9120783749968,,,,,,,,,,,,,,,,002,2025-07-28_18h56.43.203,CGTriskyDMtask,2022.2.1,59.5761748506674,
,,,,,8,,,,,,,,,,,,,,,,,,,,,,,,,0,7,7,7,2,0,2,0,,,,,,,,,,,,,,,,,,,,,,,,,,,,,,,,,,,,,,,,,,,,,"[5, 7, 2, 9, 3, 4, 8, 6]",,,,,,,,,,,,,,,,,,,,,,,,,,,,,,,,,,,,,,,,,,,890.9120783749968,891.9114415840013,891.9114415840013,892.9115424170159,,,,,,,,,,,,,,,,002,2025-07-28_18h56.43.203,CGTriskyDMtask,2022.2.1,59.5761748506674,
,,,,,8,,,,,,,,,,,,,,,,,,,,,,,,,0,7,7,7,3,0,3,0,,,,,,,,,,,,,,,,,,,,,,,,,,,,,,,,,,,,,,,,,,,,,"[5, 7, 2, 9, 3, 4, 8, 6]",,,,,,,,,,,,,,,,,,,,,,,,,,,,,,,,,,,,,,,,,,,892.9115424170159,893.911580584012,893.911580584012,894.9115906250081,,,,,,,,,,,,,,,,002,2025-07-28_18h56.43.203,CGTriskyDMtask,2022.2.1,59.5761748506674,
,,,,,8,,,,,,,,,,,,,,,,,,,,,,,,,0,7,7,7,4,0,4,0,,,,,,,,,,,,,,,,,,,,,,,,,,,,,,,,,,,,,,,,,,,,,"[5, 7, 2, 9, 3, 4, 8, 6]",,,,,,,,,,,,,,,,,,,,,,,,,,,,,,,,,,,,,,,,,,,894.9115906250081,895.9116925419949,895.9116925419949,896.911767750018,,,,,,,,,,,,,,,,002,2025-07-28_18h56.43.203,CGTriskyDMtask,2022.2.1,59.5761748506674,
,,,,,8,,,,,,,,,,,,,,,,,,,,,,,,,0,7,7,7,5,0,5,0,,,,,,,,,,,,,,,,,,,,,,,,,,,,,,,,,,,,,,,,,,,,,"[5, 7, 2, 9, 3, 4, 8, 6]",,,,,,,,,,,,,,,,,,,,,,,,,,,,,,,,,,,,,,,,,,,896.911767750018,897.9120922090078,897.9120922090078,898.9118352090009,,,,,,,,,,,,,,,,002,2025-07-28_18h56.43.203,CGTriskyDMtask,2022.2.1,59.5761748506674,
,,,,,8,,,,,,,,,,,,,,,,,,,,,,,,,0,7,7,7,6,0,6,0,,,,,,,,,,,,,,,,,,,,,,,,,,,,,,,,,,,,,,,,,,,,,"[5, 7, 2, 9, 3, 4, 8, 6]",,,,,,,,,,,,,,,,,,,,,,,,,,,,,,,,,,,,,,,,,,,898.9118352090009,899.9120948339987,899.9120948339987,900.9118909999961,,,,,,,,,,,,,,,,002,2025-07-28_18h56.43.203,CGTriskyDMtask,2022.2.1,59.5761748506674,
,,,,,8,,,,,,,,,,,,,,,,,,,,,,,,,0,7,7,7,7,0,7,0,,,,,,,,,,,,,,,,,,,,,,,,,,,,,,,,,,,,,,,,,,,,,"[5, 7, 2, 9, 3, 4, 8, 6]",,,,,,,,,,,,,,,,,,,,,,,,,,,,,,,,,,,,,,,,,,,900.9118909999961,901.9120021249983,901.9120021249983,902.9125842089998,,,,,,,,,,,,,,,,002,2025-07-28_18h56.43.203,CGTriskyDMtask,2022.2.1,59.5761748506674,
,,,,,8,,,,,,,,,,,,,,,,,,,,,,,,,0,7,7,7,,,,,,,,,,,,,,,,,,,,,,,,,,,,,,,,0,,,,,,,,,,,,,,,,,,,,,,,,,,,,,,,,,,,,,,,,,,,,,,,,,,,,,,,,,,,,,,,,902.9125842089998,902.9125842089998,902.9125842089998,0.00011875000200234354,68943275,0.04555555555555556,-0.39555555555555555,1,0,0,cont_buttonBS,908.8958783340058,909.8957370000135,,,002,2025-07-28_18h56.43.203,CGTriskyDMtask,2022.2.1,59.5761748506674,
,,,,,9,,,,,,,,,,,,,,,,,,,,,,,,,0,8,8,8,0,0,0,0,,,,,,,,,,,,,,,,,,,,,,,,,,,,,,,,,,,,,,,,,,,,,"[7, 4, 8, 1, 9, 2, 6, 5]",,,,,,,,,,,,,,,,,,,,,,,,,,,,,,,,,,,,,,,,,,,909.8957370000135,910.8795571250084,910.8957604590105,911.8789808750153,,,,,,,,,,,,,,,,002,2025-07-28_18h56.43.203,CGTriskyDMtask,2022.2.1,59.5761748506674,
,,,,,9,,,,,,,,,,,,,,,,,,,,,,,,,0,8,8,8,1,0,1,0,,,,,,,,,,,,,,,,,,,,,,,,,,,,,,,,,,,,,,,,,,,,,"[7, 4, 8, 1, 9, 2, 6, 5]",,,,,,,,,,,,,,,,,,,,,,,,,,,,,,,,,,,,,,,,,,,911.8789808750153,912.8790150840068,912.8790150840068,913.8792373340111,,,,,,,,,,,,,,,,002,2025-07-28_18h56.43.203,CGTriskyDMtask,2022.2.1,59.5761748506674,
,,,,,9,,,,,,,,,,,,,,,,,,,,,,,,,0,8,8,8,2,0,2,0,,,,,,,,,,,,,,,,,,,,,,,,,,,,,,,,,,,,,,,,,,,,,"[7, 4, 8, 1, 9, 2, 6, 5]",,,,,,,,,,,,,,,,,,,,,,,,,,,,,,,,,,,,,,,,,,,913.8792373340111,914.8788726670027,914.8788726670027,915.8799682499957,,,,,,,,,,,,,,,,002,2025-07-28_18h56.43.203,CGTriskyDMtask,2022.2.1,59.5761748506674,
,,,,,9,,,,,,,,,,,,,,,,,,,,,,,,,0,8,8,8,3,0,3,0,,,,,,,,,,,,,,,,,,,,,,,,,,,,,,,,,,,,,,,,,,,,,"[7, 4, 8, 1, 9, 2, 6, 5]",,,,,,,,,,,,,,,,,,,,,,,,,,,,,,,,,,,,,,,,,,,915.8799682499957,916.8793006670021,916.8793006670021,917.8792822920077,,,,,,,,,,,,,,,,002,2025-07-28_18h56.43.203,CGTriskyDMtask,2022.2.1,59.5761748506674,
,,,,,9,,,,,,,,,,,,,,,,,,,,,,,,,0,8,8,8,4,0,4,0,,,,,,,,,,,,,,,,,,,,,,,,,,,,,,,,,,,,,,,,,,,,,"[7, 4, 8, 1, 9, 2, 6, 5]",,,,,,,,,,,,,,,,,,,,,,,,,,,,,,,,,,,,,,,,,,,917.8792822920077,918.8793848339992,918.8793848339992,919.8791390419938,,,,,,,,,,,,,,,,002,2025-07-28_18h56.43.203,CGTriskyDMtask,2022.2.1,59.5761748506674,
,,,,,9,,,,,,,,,,,,,,,,,,,,,,,,,0,8,8,8,5,0,5,0,,,,,,,,,,,,,,,,,,,,,,,,,,,,,,,,,,,,,,,,,,,,,"[7, 4, 8, 1, 9, 2, 6, 5]",,,,,,,,,,,,,,,,,,,,,,,,,,,,,,,,,,,,,,,,,,,919.8791390419938,920.8798602090101,920.8798602090101,921.8792464589933,,,,,,,,,,,,,,,,002,2025-07-28_18h56.43.203,CGTriskyDMtask,2022.2.1,59.5761748506674,
,,,,,9,,,,,,,,,,,,,,,,,,,,,,,,,0,8,8,8,6,0,6,0,,,,,,,,,,,,,,,,,,,,,,,,,,,,,,,,,,,,,,,,,,,,,"[7, 4, 8, 1, 9, 2, 6, 5]",,,,,,,,,,,,,,,,,,,,,,,,,,,,,,,,,,,,,,,,,,,921.8792464589933,922.8795349590073,922.8795349590073,923.8804296250164,,,,,,,,,,,,,,,,002,2025-07-28_18h56.43.203,CGTriskyDMtask,2022.2.1,59.5761748506674,
,,,,,9,,,,,,,,,,,,,,,,,,,,,,,,,0,8,8,8,7,0,7,0,,,,,,,,,,,,,,,,,,,,,,,,,,,,,,,,,,,,,,,,,,,,,"[7, 4, 8, 1, 9, 2, 6, 5]",,,,,,,,,,,,,,,,,,,,,,,,,,,,,,,,,,,,,,,,,,,923.8804296250164,924.8798886669974,924.8798886669974,925.8804603340104,,,,,,,,,,,,,,,,002,2025-07-28_18h56.43.203,CGTriskyDMtask,2022.2.1,59.5761748506674,
,,,,,9,,,,,,,,,,,,,,,,,,,,,,,,,0,8,8,8,,,,,,,,,,,,,,,,,,,,,,,,,,,,,,,,0,,,,,,,,,,,,,,,,,,,,,,,,,,,,,,,,,,,,,,,,,,,,,,,,,,,,,,,,,,,,,,,,925.8804603340104,925.8804603340104,925.8804603340104,0.0007270839996635914,56129847,0.08,-0.4077777777777778,1,0,0,cont_buttonBS,932.846410750004,933.8465775840159,,,002,2025-07-28_18h56.43.203,CGTriskyDMtask,2022.2.1,59.5761748506674,
,,,,,10,,,,,,,,,,,,,,,,,,,,,,,,,0,9,9,9,0,0,0,0,,,,,,,,,,,,,,,,,,,,,,,,,,,,,,,,,,,,,,,,,,,,,"[9, 5, 1, 6, 3, 4, 8]",,,,,,,,,,,,,,,,,,,,,,,,,,,,,,,,,,,,,,,,,,,933.8465775840159,934.8299148340011,934.8465637089976,935.8300670839963,,,,,,,,,,,,,,,,002,2025-07-28_18h56.43.203,CGTriskyDMtask,2022.2.1,59.5761748506674,
,,,,,10,,,,,,,,,,,,,,,,,,,,,,,,,0,9,9,9,1,0,1,0,,,,,,,,,,,,,,,,,,,,,,,,,,,,,,,,,,,,,,,,,,,,,"[9, 5, 1, 6, 3, 4, 8]",,,,,,,,,,,,,,,,,,,,,,,,,,,,,,,,,,,,,,,,,,,935.8300670839963,936.8306472499971,936.8306472499971,937.8302199589962,,,,,,,,,,,,,,,,002,2025-07-28_18h56.43.203,CGTriskyDMtask,2022.2.1,59.5761748506674,
,,,,,10,,,,,,,,,,,,,,,,,,,,,,,,,0,9,9,9,2,0,2,0,,,,,,,,,,,,,,,,,,,,,,,,,,,,,,,,,,,,,,,,,,,,,"[9, 5, 1, 6, 3, 4, 8]",,,,,,,,,,,,,,,,,,,,,,,,,,,,,,,,,,,,,,,,,,,937.8302199589962,938.8307758340088,938.8307758340088,939.8315592090075,,,,,,,,,,,,,,,,002,2025-07-28_18h56.43.203,CGTriskyDMtask,2022.2.1,59.5761748506674,
,,,,,10,,,,,,,,,,,,,,,,,,,,,,,,,0,9,9,9,3,0,3,0,,,,,,,,,,,,,,,,,,,,,,,,,,,,,,,,,,,,,,,,,,,,,"[9, 5, 1, 6, 3, 4, 8]",,,,,,,,,,,,,,,,,,,,,,,,,,,,,,,,,,,,,,,,,,,939.8315592090075,940.8469966670091,940.8469966670091,941.8469127090066,,,,,,,,,,,,,,,,002,2025-07-28_18h56.43.203,CGTriskyDMtask,2022.2.1,59.5761748506674,
,,,,,10,,,,,,,,,,,,,,,,,,,,,,,,,0,9,9,9,4,0,4,0,,,,,,,,,,,,,,,,,,,,,,,,,,,,,,,,,,,,,,,,,,,,,"[9, 5, 1, 6, 3, 4, 8]",,,,,,,,,,,,,,,,,,,,,,,,,,,,,,,,,,,,,,,,,,,941.8469127090066,942.8303433340043,942.8469107919955,943.8314896250085,,,,,,,,,,,,,,,,002,2025-07-28_18h56.43.203,CGTriskyDMtask,2022.2.1,59.5761748506674,
,,,,,10,,,,,,,,,,,,,,,,,,,,,,,,,0,9,9,9,5,0,5,0,,,,,,,,,,,,,,,,,,,,,,,,,,,,,,,,,,,,,,,,,,,,,"[9, 5, 1, 6, 3, 4, 8]",,,,,,,,,,,,,,,,,,,,,,,,,,,,,,,,,,,,,,,,,,,943.8314896250085,944.8305037090031,944.8305037090031,945.8309401670122,,,,,,,,,,,,,,,,002,2025-07-28_18h56.43.203,CGTriskyDMtask,2022.2.1,59.5761748506674,
,,,,,10,,,,,,,,,,,,,,,,,,,,,,,,,0,9,9,9,6,0,6,0,,,,,,,,,,,,,,,,,,,,,,,,,,,,,,,,,,,,,,,,,,,,,"[9, 5, 1, 6, 3, 4, 8]",,,,,,,,,,,,,,,,,,,,,,,,,,,,,,,,,,,,,,,,,,,945.8309401670122,946.8305057919933,946.8305057919933,947.8307272499951,,,,,,,,,,,,,,,,002,2025-07-28_18h56.43.203,CGTriskyDMtask,2022.2.1,59.5761748506674,
,,,,,10,,,,,,,,,,,,,,,,,,,,,,,,,0,9,9,9,,,,,,,,,,,,,,,,,,,,,,,,,,,,,,,,1,,,,,,,,,,,,,,,,,,,,,,,,,,,,,,,,,,,,,,,,,,,,,,,,,,,,,,,,,,,,,,,,947.8307272499951,947.8307272499951,947.8307272499951,-0.0003065000055357814,8436159,0.06222222222222222,-0.42,1,0,0,cont_buttonBS,953.230940709007,954.2308315419941,,,002,2025-07-28_18h56.43.203,CGTriskyDMtask,2022.2.1,59.5761748506674,
,,,,,11,,,,,,,,,,,,,,,,,,,,,,,,,0,10,10,10,0,0,0,0,,,,,,,,,,,,,,,,,,,,,,,,,,,,,,,,,,,,,,,,,,,,,"[2, 6, 8, 3, 5, 1, 7, 4]",,,,,,,,,,,,,,,,,,,,,,,,,,,,,,,,,,,,,,,,,,,954.2308315419941,955.214606374997,955.2307466250204,956.2142648750159,,,,,,,,,,,,,,,,002,2025-07-28_18h56.43.203,CGTriskyDMtask,2022.2.1,59.5761748506674,
,,,,,11,,,,,,,,,,,,,,,,,,,,,,,,,0,10,10,10,1,0,1,0,,,,,,,,,,,,,,,,,,,,,,,,,,,,,,,,,,,,,,,,,,,,,"[2, 6, 8, 3, 5, 1, 7, 4]",,,,,,,,,,,,,,,,,,,,,,,,,,,,,,,,,,,,,,,,,,,956.2142648750159,957.2139598340145,957.2139598340145,958.2149335840077,,,,,,,,,,,,,,,,002,2025-07-28_18h56.43.203,CGTriskyDMtask,2022.2.1,59.5761748506674,
,,,,,11,,,,,,,,,,,,,,,,,,,,,,,,,0,10,10,10,2,0,2,0,,,,,,,,,,,,,,,,,,,,,,,,,,,,,,,,,,,,,,,,,,,,,"[2, 6, 8, 3, 5, 1, 7, 4]",,,,,,,,,,,,,,,,,,,,,,,,,,,,,,,,,,,,,,,,,,,958.2149335840077,959.2142832920072,959.2142832920072,960.2149153749924,,,,,,,,,,,,,,,,002,2025-07-28_18h56.43.203,CGTriskyDMtask,2022.2.1,59.5761748506674,
,,,,,11,,,,,,,,,,,,,,,,,,,,,,,,,0,10,10,10,3,0,3,0,,,,,,,,,,,,,,,,,,,,,,,,,,,,,,,,,,,,,,,,,,,,,"[2, 6, 8, 3, 5, 1, 7, 4]",,,,,,,,,,,,,,,,,,,,,,,,,,,,,,,,,,,,,,,,,,,960.2149153749924,961.2147509170172,961.2147509170172,962.2142379170109,,,,,,,,,,,,,,,,002,2025-07-28_18h56.43.203,CGTriskyDMtask,2022.2.1,59.5761748506674,
,,,,,11,,,,,,,,,,,,,,,,,,,,,,,,,0,10,10,10,4,0,4,0,,,,,,,,,,,,,,,,,,,,,,,,,,,,,,,,,,,,,,,,,,,,,"[2, 6, 8, 3, 5, 1, 7, 4]",,,,,,,,,,,,,,,,,,,,,,,,,,,,,,,,,,,,,,,,,,,962.2142379170109,963.2146915420017,963.2146915420017,964.2145720840199,,,,,,,,,,,,,,,,002,2025-07-28_18h56.43.203,CGTriskyDMtask,2022.2.1,59.5761748506674,
,,,,,11,,,,,,,,,,,,,,,,,,,,,,,,,0,10,10,10,5,0,5,0,,,,,,,,,,,,,,,,,,,,,,,,,,,,,,,,,,,,,,,,,,,,,"[2, 6, 8, 3, 5, 1, 7, 4]",,,,,,,,,,,,,,,,,,,,,,,,,,,,,,,,,,,,,,,,,,,964.2145720840199,965.2149883749953,965.2149883749953,966.2144749170111,,,,,,,,,,,,,,,,002,2025-07-28_18h56.43.203,CGTriskyDMtask,2022.2.1,59.5761748506674,
,,,,,11,,,,,,,,,,,,,,,,,,,,,,,,,0,10,10,10,6,0,6,0,,,,,,,,,,,,,,,,,,,,,,,,,,,,,,,,,,,,,,,,,,,,,"[2, 6, 8, 3, 5, 1, 7, 4]",,,,,,,,,,,,,,,,,,,,,,,,,,,,,,,,,,,,,,,,,,,966.2144749170111,967.2146877920022,967.2146877920022,968.2148567090044,,,,,,,,,,,,,,,,002,2025-07-28_18h56.43.203,CGTriskyDMtask,2022.2.1,59.5761748506674,
,,,,,11,,,,,,,,,,,,,,,,,,,,,,,,,0,10,10,10,7,0,7,0,,,,,,,,,,,,,,,,,,,,,,,,,,,,,,,,,,,,,,,,,,,,,"[2, 6, 8, 3, 5, 1, 7, 4]",,,,,,,,,,,,,,,,,,,,,,,,,,,,,,,,,,,,,,,,,,,968.2148567090044,969.2148169169959,969.2148169169959,970.2145292500209,,,,,,,,,,,,,,,,002,2025-07-28_18h56.43.203,CGTriskyDMtask,2022.2.1,59.5761748506674,
,,,,,11,,,,,,,,,,,,,,,,,,,,,,,,,0,10,10,10,,,,,,,,,,,,,,,,,,,,,,,,,,,,,,,,1,,,,,,,,,,,,,,,,,,,,,,,,,,,,,,,,,,,,,,,,,,,,,,,,,,,,,,,,,,,,,,,,970.2145292500209,970.2145292500209,970.2145292500209,-0.0005654589913319796,47153862,0.04666666666666667,-0.4111111111111111,1,0,0,cont_buttonBS,976.6316745840013,977.6317626670061,,,002,2025-07-28_18h56.43.203,CGTriskyDMtask,2022.2.1,59.5761748506674,
,,,,,12,,,,,,,,,,,,,,,,,,,,,,,,,0,11,11,11,0,0,0,0,,,,,,,,,,,,,,,,,,,,,,,,,,,,,,,,,,,,,,,,,,,,,"[2, 3, 5, 9, 1, 6, 8, 4, 7]",,,,,,,,,,,,,,,,,,,,,,,,,,,,,,,,,,,,,,,,,,,977.6317626670061,978.6150360419997,978.6317760420206,979.6150582499977,,,,,,,,,,,,,,,,002,2025-07-28_18h56.43.203,CGTriskyDMtask,2022.2.1,59.5761748506674,
,,,,,12,,,,,,,,,,,,,,,,,,,,,,,,,0,11,11,11,1,0,1,0,,,,,,,,,,,,,,,,,,,,,,,,,,,,,,,,,,,,,,,,,,,,,"[2, 3, 5, 9, 1, 6, 8, 4, 7]",,,,,,,,,,,,,,,,,,,,,,,,,,,,,,,,,,,,,,,,,,,979.6150582499977,980.6158126250084,980.6158126250084,981.6152843750024,,,,,,,,,,,,,,,,002,2025-07-28_18h56.43.203,CGTriskyDMtask,2022.2.1,59.5761748506674,
,,,,,12,,,,,,,,,,,,,,,,,,,,,,,,,0,11,11,11,2,0,2,0,,,,,,,,,,,,,,,,,,,,,,,,,,,,,,,,,,,,,,,,,,,,,"[2, 3, 5, 9, 1, 6, 8, 4, 7]",,,,,,,,,,,,,,,,,,,,,,,,,,,,,,,,,,,,,,,,,,,981.6152843750024,982.6156453750154,982.6156453750154,983.6153033339942,,,,,,,,,,,,,,,,002,2025-07-28_18h56.43.203,CGTriskyDMtask,2022.2.1,59.5761748506674,
,,,,,12,,,,,,,,,,,,,,,,,,,,,,,,,0,11,11,11,3,0,3,0,,,,,,,,,,,,,,,,,,,,,,,,,,,,,,,,,,,,,,,,,,,,,"[2, 3, 5, 9, 1, 6, 8, 4, 7]",,,,,,,,,,,,,,,,,,,,,,,,,,,,,,,,,,,,,,,,,,,983.6153033339942,984.6152137090103,984.6152137090103,985.6157486670127,,,,,,,,,,,,,,,,002,2025-07-28_18h56.43.203,CGTriskyDMtask,2022.2.1,59.5761748506674,
,,,,,12,,,,,,,,,,,,,,,,,,,,,,,,,0,11,11,11,4,0,4,0,,,,,,,,,,,,,,,,,,,,,,,,,,,,,,,,,,,,,,,,,,,,,"[2, 3, 5, 9, 1, 6, 8, 4, 7]",,,,,,,,,,,,,,,,,,,,,,,,,,,,,,,,,,,,,,,,,,,985.6157486670127,986.6159213340143,986.6159213340143,987.6157684170175,,,,,,,,,,,,,,,,002,2025-07-28_18h56.43.203,CGTriskyDMtask,2022.2.1,59.5761748506674,
,,,,,12,,,,,,,,,,,,,,,,,,,,,,,,,0,11,11,11,5,0,5,0,,,,,,,,,,,,,,,,,,,,,,,,,,,,,,,,,,,,,,,,,,,,,"[2, 3, 5, 9, 1, 6, 8, 4, 7]",,,,,,,,,,,,,,,,,,,,,,,,,,,,,,,,,,,,,,,,,,,987.6157684170175,988.6154382920067,988.6154382920067,989.615435292013,,,,,,,,,,,,,,,,002,2025-07-28_18h56.43.203,CGTriskyDMtask,2022.2.1,59.5761748506674,
,,,,,12,,,,,,,,,,,,,,,,,,,,,,,,,0,11,11,11,6,0,6,0,,,,,,,,,,,,,,,,,,,,,,,,,,,,,,,,,,,,,,,,,,,,,"[2, 3, 5, 9, 1, 6, 8, 4, 7]",,,,,,,,,,,,,,,,,,,,,,,,,,,,,,,,,,,,,,,,,,,989.615435292013,990.616484541999,990.616484541999,991.6162134589977,,,,,,,,,,,,,,,,002,2025-07-28_18h56.43.203,CGTriskyDMtask,2022.2.1,59.5761748506674,
,,,,,12,,,,,,,,,,,,,,,,,,,,,,,,,0,11,11,11,7,0,7,0,,,,,,,,,,,,,,,,,,,,,,,,,,,,,,,,,,,,,,,,,,,,,"[2, 3, 5, 9, 1, 6, 8, 4, 7]",,,,,,,,,,,,,,,,,,,,,,,,,,,,,,,,,,,,,,,,,,,991.6162134589977,992.6156467499968,992.6156467499968,993.6156912090082,,,,,,,,,,,,,,,,002,2025-07-28_18h56.43.203,CGTriskyDMtask,2022.2.1,59.5761748506674,
,,,,,12,,,,,,,,,,,,,,,,,,,,,,,,,0,11,11,11,8,0,8,0,,,,,,,,,,,,,,,,,,,,,,,,,,,,,,,,,,,,,,,,,,,,,"[2, 3, 5, 9, 1, 6, 8, 4, 7]",,,,,,,,,,,,,,,,,,,,,,,,,,,,,,,,,,,,,,,,,,,993.6156912090082,994.6155254170008,994.6155254170008,995.6164348750026,,,,,,,,,,,,,,,,002,2025-07-28_18h56.43.203,CGTriskyDMtask,2022.2.1,59.5761748506674,
,,,,,12,,,,,,,,,,,,,,,,,,,,,,,,,0,11,11,11,,,,,,,,,,,,,,,,,,,,,,,,,,,,,,,,0,,,,,,,,,,,,,,,,,,,,,,,,,,,,,,,,,,,,,,,,,,,,,,,,,,,,,,,,,,,,,,,,995.6164348750026,995.6164348750026,995.6164348750026,0.0004964590189047158,748619352,-0.012222222222222223,-0.3977777777777778,1,0,0,cont_buttonBS,1002.5163150000153,1003.5162247919943,,,002,2025-07-28_18h56.43.203,CGTriskyDMtask,2022.2.1,59.5761748506674,
,,,,,13,,,,,,,,,,,,,,,,,,,,,,,,,0,12,12,12,0,0,0,0,,,,,,,,,,,,,,,,,,,,,,,,,,,,,,,,,,,,,,,,,,,,,"[7, 1, 3, 5, 8, 9, 2, 4, 6]",,,,,,,,,,,,,,,,,,,,,,,,,,,,,,,,,,,,,,,,,,,1003.5162247919943,1004.5163195840141,1004.5163195840141,1005.5165014170052,,,,,,,,,,,,,,,,002,2025-07-28_18h56.43.203,CGTriskyDMtask,2022.2.1,59.5761748506674,
,,,,,13,,,,,,,,,,,,,,,,,,,,,,,,,0,12,12,12,1,0,1,0,,,,,,,,,,,,,,,,,,,,,,,,,,,,,,,,,,,,,,,,,,,,,"[7, 1, 3, 5, 8, 9, 2, 4, 6]",,,,,,,,,,,,,,,,,,,,,,,,,,,,,,,,,,,,,,,,,,,1005.5165014170052,1006.5004266670148,1006.5168516669946,1007.499701666995,,,,,,,,,,,,,,,,002,2025-07-28_18h56.43.203,CGTriskyDMtask,2022.2.1,59.5761748506674,
,,,,,13,,,,,,,,,,,,,,,,,,,,,,,,,0,12,12,12,2,0,2,0,,,,,,,,,,,,,,,,,,,,,,,,,,,,,,,,,,,,,,,,,,,,,"[7, 1, 3, 5, 8, 9, 2, 4, 6]",,,,,,,,,,,,,,,,,,,,,,,,,,,,,,,,,,,,,,,,,,,1007.516428834002,1008.5165137920121,1008.5165137920121,1009.516637416993,,,,,,,,,,,,,,,,002,2025-07-28_18h56.43.203,CGTriskyDMtask,2022.2.1,59.5761748506674,
,,,,,13,,,,,,,,,,,,,,,,,,,,,,,,,0,12,12,12,3,0,3,0,,,,,,,,,,,,,,,,,,,,,,,,,,,,,,,,,,,,,,,,,,,,,"[7, 1, 3, 5, 8, 9, 2, 4, 6]",,,,,,,,,,,,,,,,,,,,,,,,,,,,,,,,,,,,,,,,,,,1009.516637416993,1010.4996674169961,1010.5167227920028,1011.5011651249952,,,,,,,,,,,,,,,,002,2025-07-28_18h56.43.203,CGTriskyDMtask,2022.2.1,59.5761748506674,
,,,,,13,,,,,,,,,,,,,,,,,,,,,,,,,0,12,12,12,4,0,4,0,,,,,,,,,,,,,,,,,,,,,,,,,,,,,,,,,,,,,,,,,,,,,"[7, 1, 3, 5, 8, 9, 2, 4, 6]",,,,,,,,,,,,,,,,,,,,,,,,,,,,,,,,,,,,,,,,,,,1011.5011651249952,1012.499907999998,1012.5166206250142,1013.4999486250163,,,,,,,,,,,,,,,,002,2025-07-28_18h56.43.203,CGTriskyDMtask,2022.2.1,59.5761748506674,
,,,,,13,,,,,,,,,,,,,,,,,,,,,,,,,0,12,12,12,5,0,5,0,,,,,,,,,,,,,,,,,,,,,,,,,,,,,,,,,,,,,,,,,,,,,"[7, 1, 3, 5, 8, 9, 2, 4, 6]",,,,,,,,,,,,,,,,,,,,,,,,,,,,,,,,,,,,,,,,,,,1013.4999486250163,1014.5000830840145,1014.5000830840145,1015.4999795420154,,,,,,,,,,,,,,,,002,2025-07-28_18h56.43.203,CGTriskyDMtask,2022.2.1,59.5761748506674,
,,,,,13,,,,,,,,,,,,,,,,,,,,,,,,,0,12,12,12,6,0,6,0,,,,,,,,,,,,,,,,,,,,,,,,,,,,,,,,,,,,,,,,,,,,,"[7, 1, 3, 5, 8, 9, 2, 4, 6]",,,,,,,,,,,,,,,,,,,,,,,,,,,,,,,,,,,,,,,,,,,1015.4999795420154,1016.5001583750127,1016.5001583750127,1017.5001176670194,,,,,,,,,,,,,,,,002,2025-07-28_18h56.43.203,CGTriskyDMtask,2022.2.1,59.5761748506674,
,,,,,13,,,,,,,,,,,,,,,,,,,,,,,,,0,12,12,12,7,0,7,0,,,,,,,,,,,,,,,,,,,,,,,,,,,,,,,,,,,,,,,,,,,,,"[7, 1, 3, 5, 8, 9, 2, 4, 6]",,,,,,,,,,,,,,,,,,,,,,,,,,,,,,,,,,,,,,,,,,,1017.5001176670194,1018.5000399590062,1018.5000399590062,1019.5001345420023,,,,,,,,,,,,,,,,002,2025-07-28_18h56.43.203,CGTriskyDMtask,2022.2.1,59.5761748506674,
,,,,,13,,,,,,,,,,,,,,,,,,,,,,,,,0,12,12,12,8,0,8,0,,,,,,,,,,,,,,,,,,,,,,,,,,,,,,,,,,,,,,,,,,,,,"[7, 1, 3, 5, 8, 9, 2, 4, 6]",,,,,,,,,,,,,,,,,,,,,,,,,,,,,,,,,,,,,,,,,,,1019.5001345420023,1020.500260959001,1020.500260959001,1021.5008489589964,,,,,,,,,,,,,,,,002,2025-07-28_18h56.43.203,CGTriskyDMtask,2022.2.1,59.5761748506674,
,,,,,13,,,,,,,,,,,,,,,,,,,,,,,,,0,12,12,12,,,,,,,,,,,,,,,,,,,,,,,,,,,,,,,,0,,,,,,,,,,,,,,,,,,,,,,,,,,,,,,,,,,,,,,,,,,,,,,,,,,,,,,,,,,,,,,,,1021.5008489589964,1021.5008489589964,1021.5008489589964,7.891599670983851e-05,642983517,0.005555555555555556,-0.41,1,0,0,cont_buttonBS,1030.1174674170034,1031.1173006250174,,,002,2025-07-28_18h56.43.203,CGTriskyDMtask,2022.2.1,59.5761748506674,
,,,,,14,,,,,,,,,,,,,,,,,,,,,,,,,0,13,13,13,0,0,0,0,,,,,,,,,,,,,,,,,,,,,,,,,,,,,,,,,,,,,,,,,,,,,"[1, 8, 2, 9, 3, 7, 5, 4]",,,,,,,,,,,,,,,,,,,,,,,,,,,,,,,,,,,,,,,,,,,1031.1173006250174,1032.1178862920206,1032.1178862920206,1033.1177624590055,,,,,,,,,,,,,,,,002,2025-07-28_18h56.43.203,CGTriskyDMtask,2022.2.1,59.5761748506674,
,,,,,14,,,,,,,,,,,,,,,,,,,,,,,,,0,13,13,13,1,0,1,0,,,,,,,,,,,,,,,,,,,,,,,,,,,,,,,,,,,,,,,,,,,,,"[1, 8, 2, 9, 3, 7, 5, 4]",,,,,,,,,,,,,,,,,,,,,,,,,,,,,,,,,,,,,,,,,,,1033.1177624590055,1034.1008190840075,1034.1174326670007,1035.1008235420159,,,,,,,,,,,,,,,,002,2025-07-28_18h56.43.203,CGTriskyDMtask,2022.2.1,59.5761748506674,
,,,,,14,,,,,,,,,,,,,,,,,,,,,,,,,0,13,13,13,2,0,2,0,,,,,,,,,,,,,,,,,,,,,,,,,,,,,,,,,,,,,,,,,,,,,"[1, 8, 2, 9, 3, 7, 5, 4]",,,,,,,,,,,,,,,,,,,,,,,,,,,,,,,,,,,,,,,,,,,1035.1008235420159,1036.1006803339988,1036.1006803339988,1037.1016850419983,,,,,,,,,,,,,,,,002,2025-07-28_18h56.43.203,CGTriskyDMtask,2022.2.1,59.5761748506674,
,,,,,14,,,,,,,,,,,,,,,,,,,,,,,,,0,13,13,13,3,0,3,0,,,,,,,,,,,,,,,,,,,,,,,,,,,,,,,,,,,,,,,,,,,,,"[1, 8, 2, 9, 3, 7, 5, 4]",,,,,,,,,,,,,,,,,,,,,,,,,,,,,,,,,,,,,,,,,,,1037.1016850419983,1038.101250125008,1038.101250125008,1039.1009894589952,,,,,,,,,,,,,,,,002,2025-07-28_18h56.43.203,CGTriskyDMtask,2022.2.1,59.5761748506674,
,,,,,14,,,,,,,,,,,,,,,,,,,,,,,,,0,13,13,13,4,0,4,0,,,,,,,,,,,,,,,,,,,,,,,,,,,,,,,,,,,,,,,,,,,,,"[1, 8, 2, 9, 3, 7, 5, 4]",,,,,,,,,,,,,,,,,,,,,,,,,,,,,,,,,,,,,,,,,,,1039.1009894589952,1040.1015285419999,1040.1015285419999,1041.1012396670121,,,,,,,,,,,,,,,,002,2025-07-28_18h56.43.203,CGTriskyDMtask,2022.2.1,59.5761748506674,
,,,,,14,,,,,,,,,,,,,,,,,,,,,,,,,0,13,13,13,5,0,5,0,,,,,,,,,,,,,,,,,,,,,,,,,,,,,,,,,,,,,,,,,,,,,"[1, 8, 2, 9, 3, 7, 5, 4]",,,,,,,,,,,,,,,,,,,,,,,,,,,,,,,,,,,,,,,,,,,1041.1012396670121,1042.1012179170211,1042.1012179170211,1043.1010375000187,,,,,,,,,,,,,,,,002,2025-07-28_18h56.43.203,CGTriskyDMtask,2022.2.1,59.5761748506674,
,,,,,14,,,,,,,,,,,,,,,,,,,,,,,,,0,13,13,13,6,0,6,0,,,,,,,,,,,,,,,,,,,,,,,,,,,,,,,,,,,,,,,,,,,,,"[1, 8, 2, 9, 3, 7, 5, 4]",,,,,,,,,,,,,,,,,,,,,,,,,,,,,,,,,,,,,,,,,,,1043.1010375000187,1044.1011447090132,1044.1011447090132,1045.1015946670086,,,,,,,,,,,,,,,,002,2025-07-28_18h56.43.203,CGTriskyDMtask,2022.2.1,59.5761748506674,
,,,,,14,,,,,,,,,,,,,,,,,,,,,,,,,0,13,13,13,7,0,7,0,,,,,,,,,,,,,,,,,,,,,,,,,,,,,,,,,,,,,,,,,,,,,"[1, 8, 2, 9, 3, 7, 5, 4]",,,,,,,,,,,,,,,,,,,,,,,,,,,,,,,,,,,,,,,,,,,1045.1015946670086,1046.1012241670105,1046.1012241670105,1047.101050333993,,,,,,,,,,,,,,,,002,2025-07-28_18h56.43.203,CGTriskyDMtask,2022.2.1,59.5761748506674,
,,,,,14,,,,,,,,,,,,,,,,,,,,,,,,,0,13,13,13,,,,,,,,,,,,,,,,,,,,,,,,,,,,,,,,0,,,,,,,,,,,,,,,,,,,,,,,,,,,,,,,,,,,,,,,,,,,,,,,,,,,,,,,,,,,,,,,,1047.101050333993,1047.101050333993,1047.101050333993,-0.0005554999806918204,45798321,0.028888888888888888,-0.4022222222222222,1,0,0,cont_buttonBS,1053.0683833750081,1054.0689106670034,,,002,2025-07-28_18h56.43.203,CGTriskyDMtask,2022.2.1,59.5761748506674,
,,,,,,,,,,,,,,,,,,,,,,,,,,,,,,,,,,,,,,,,,,,,,,,,,,,,,,,,,,,,,,,,,,,,,,,,,,,,,,,,,,,,,,,,,,,,,,,,,,,,,,,,,,,,,,,,,,,,,,,,,,,,,,,,,,,,,,,,,,,,,,1054.0689106670034,1056.068923084007,,,,,,
