digitSpan,digits,digitsReverse,trialNumber,trialFSPractice.thisRepN,trialFSPractice.thisTrialN,trialFSPractice.thisN,trialFSPractice.thisIndex,DigitLoopPractice.thisRepN,DigitLoopPractice.thisTrialN,DigitLoopPractice.thisN,DigitLoopPractice.thisIndex,trialsFS.thisRepN,trialsFS.thisTrialN,trialsFS.thisN,trialsFS.thisIndex,digitLoop.thisRepN,digitLoop.thisTrialN,digitLoop.thisN,digitLoop.thisIndex,trialsPracticeBS.thisRepN,trialsPracticeBS.thisTrialN,trialsPracticeBS.thisN,trialsPracticeBS.thisIndex,digitLoopPracticeBS.thisRepN,digitLoopPracticeBS.thisTrialN,digitLoopPracticeBS.thisN,digitLoopPracticeBS.thisIndex,thisRow.t,notes,settingUp.started,settingUp.stopped,SpanGeneralInstructions.started,GenInsText.started,movealong.started,SpanGeneralInstructions.stopped,movealong.keys,movealong.rt,movealong.duration,SpanReminder1.started,Reminder1.started,movealong2.started,SpanReminder1.stopped,movealong2.keys,movealong2.rt,movealong2.duration,SpanReminder2.started,Reminder2.started,movealong3.started,SpanReminder2.stopped,movealong3.keys,movealong3.rt,movealong3.duration,FSInstructions.started,FSGenInsText.started,startPractice.started,FSInstructions.stopped,startPractice.keys,startPractice.rt,startPractice.duration,ShowNumbersPractice.started,fixation_2.started,pres_text_practice.started,fixation_2.stopped,pres_text_practice.stopped,ShowNumbersPractice.stopped,RecallPractice.started,recall_txtPractice.started,textboxPractice.started,cont_buttonPractice.started,mousePractice.started,RecallPractice.stopped,textboxPractice.text,correct,mousePractice.x,mousePractice.y,mousePractice.leftButton,mousePractice.midButton,mousePractice.rightButton,mousePractice.clicked_name,FeedbackPractice.started,feedbac_textPractice.started,feedbac_textPractice.stopped,FeedbackPractice.stopped,StartRealFS.started,praccomplete.started,startFSreal.started,StartRealFS.stopped,startFSreal.keys,startFSreal.rt,startFSreal.duration,selectNumbers.started,selectNumbers.stopped,ShowNumbers.started,fixation.started,presentation_text.started,fixation.stopped,ShowNumbers.stopped,digitsForTrial,Recall.started,recall_txt.started,textbox.started,cont_button.started,mouse_3.started,Recall.stopped,textbox.text,mouse_3.x,mouse_3.y,mouse_3.leftButton,mouse_3.midButton,mouse_3.rightButton,mouse_3.clicked_name,Feedback.started,feedback_text.started,Feedback.stopped,presentation_text.stopped,feedback_text.stopped,FStoBStransition.started,roundTransition.started,moveToBS.started,FStoBStransition.stopped,moveToBS.keys,moveToBS.rt,moveToBS.duration,InstructionsBS.started,BSGenInsText.started,startBSprac.started,InstructionsBS.stopped,startBSprac.keys,startBSprac.rt,startBSprac.duration,showNumbersPracticeBS.started,fixation_3.started,pres_text_practice_2.started,fixation_3.stopped,pres_text_practice_2.stopped,showNumbersPracticeBS.stopped,recallPracticeBS.started,recall_txtPractice_2.started,textboxPractice_2.started,cont_buttonPractice_2.started,mousePractice_2.started,recallPracticeBS.stopped,textboxPractice_2.text,participant,date,expName,psychopyVersion,frameRate,expStart,
,,,,,,,,,,,,,,,,,,,,,,,,,,,,,,0.011079541989602149,0.01178224990144372,,,,,,,,,,,,,,,,,,,,,,,,,,,,,,,,,,,,,,,,,,,,,,,,,,,,,,,,,,,,,,,,,,,,,,,,,,,,,,,,,,,,,,,,,,,,,,,,,,,,,,,,,,,,,,,,,999,2025-07-16_14h21.50.107,CGTriskyDMtask,2024.1.3,None,2025-07-16 14h22.06.625067 -0600,
,,,,,,,,,,,,,,,,,,,,,,,,,,,,,,,,0.01180262491106987,0.020439166924916208,0.020439166924916208,1.816599041922018,return,-877196.261579124,None,,,,,,,,,,,,,,,,,,,,,,,,,,,,,,,,,,,,,,,,,,,,,,,,,,,,,,,,,,,,,,,,,,,,,,,,,,,,,,,,,,,,,,,,,,,,,,,,,,,,,,,,,,999,2025-07-16_14h21.50.107,CGTriskyDMtask,2024.1.3,None,2025-07-16 14h22.06.625067 -0600,
,,,,,,,,,,,,,,,,,,,,,,,,,,,,,,,,,,,,,,,1.8166189579060301,1.8334539999486879,1.8334539999486879,2.784653916954994,return,-877197.1069362081,None,,,,,,,,,,,,,,,,,,,,,,,,,,,,,,,,,,,,,,,,,,,,,,,,,,,,,,,,,,,,,,,,,,,,,,,,,,,,,,,,,,,,,,,,,,,,,,,,,,,999,2025-07-16_14h21.50.107,CGTriskyDMtask,2024.1.3,None,2025-07-16 14h22.06.625067 -0600,
,,,,,,,,,,,,,,,,,,,,,,,,,,,,,,,,,,,,,,,,,,,,,,2.7846803329885006,2.7983531669015065,2.7983531669015065,3.5501188749913126,return,-877197.290489624,None,,,,,,,,,,,,,,,,,,,,,,,,,,,,,,,,,,,,,,,,,,,,,,,,,,,,,,,,,,,,,,,,,,,,,,,,,,,,,,,,,,,,,,,,,,,,999,2025-07-16_14h21.50.107,CGTriskyDMtask,2024.1.3,None,2025-07-16 14h22.06.625067 -0600,
,,,,,,,,,,,,,,,,,,,,,,,,,,,,,,,,,,,,,,,,,,,,,,,,,,,,,3.55014849989675,3.5667686669621617,3.5667686669621617,5.466046916902997,return,-877196.1432420831,None,,,,,,,,,,,,,,,,,,,,,,,,,,,,,,,,,,,,,,,,,,,,,,,,,,,,,,,,,,,,,,,,,,,,,,,,,,,,,,,,,,,,,999,2025-07-16_14h21.50.107,CGTriskyDMtask,2024.1.3,None,2025-07-16 14h22.06.625067 -0600,
3,342,243,,0,0,0,0,,,,,,,,,,,,,,,,,,,,,9.46676104189828,,,,,,,,,,,,,,,,,,,,,,,,,,,,,,,,9.451350416988134,9.46676104189828,10.46765416697599,10.46765416697599,11.46843258291483,11.4515989999054,11.45169062493369,11.46843258291483,11.46843258291483,11.46843258291483,0.0024404589785262942,18.687376916990615,342,1,0.012222222222222223,-0.39666666666666667,1,0,0,cont_buttonPractice,18.68841087492183,18.69857270794455,19.70079954189714,19.6849287499208,,,,,,,,,,,,,,,,,,,,,,,,,,,,,,,,,,,,,,,,,,,,,,,,,,,,,,,,,,,,,999,2025-07-16_14h21.50.107,CGTriskyDMtask,2024.1.3,None,2025-07-16 14h22.06.625067 -0600,
3,937,739,,0,1,1,1,,,,,,,,,,,,,,,,,,,,,23.701206249999814,,,,,,,,,,,,,,,,,,,,,,,,,,,,,,,,23.68561529193539,23.701206249999814,24.701964457985014,24.701964457985014,25.702953666914254,25.686716874944977,25.686813707929105,25.702953666914254,25.702953666914254,25.702953666914254,-0.0008146250620484352,28.019889832939953,937,1,0.012222222222222223,-0.39666666666666667,1,0,0,cont_buttonPractice,28.020653541898355,28.035119291977026,29.034742624964565,29.018859957926907,,,,,,,,,,,,,,,,,,,,,,,,,,,,,,,,,,,,,,,,,,,,,,,,,,,,,,,,,,,,,999,2025-07-16_14h21.50.107,CGTriskyDMtask,2024.1.3,None,2025-07-16 14h22.06.625067 -0600,
,,,,,,,,,,,,,,,,,,,,,,,,,,,,,,,,,,,,,,,,,,,,,,,,,,,,,,,,,,,,,,,,,,,,,,,,,,,,,,,,,,,,29.018938416964374,29.034742624964565,29.034742624964565,38.60154912492726,return,-877188.4887793751,None,,,,,,,,,,,,,,,,,,,,,,,,,,,,,,,,,,,,,,,,,,,,,,,,,,,,,,999,2025-07-16_14h21.50.107,CGTriskyDMtask,2024.1.3,None,2025-07-16 14h22.06.625067 -0600,
,,,1,,,,,,,,,0,0,0,0,0,0,0,0,,,,,,,,,38.62479099992197,,,,,,,,,,,,,,,,,,,,,,,,,,,,,,,,,,,,,,,,,,,,,,,,,,,,,,,,,,,,,,,38.611538041965105,38.612066332949325,38.61341454193462,38.62479099992197,39.6186762918951,39.63510499999393,40.619523666915484,"[8, 3, 1]",,,,,,,,,,,,,,,,,,,,,,,,,,,,,,,,,,,,,,,,,,,,,,999,2025-07-16_14h21.50.107,CGTriskyDMtask,2024.1.3,None,2025-07-16 14h22.06.625067 -0600,
,,,1,,,,,,,,,0,0,0,0,1,0,1,0,,,,,,,,,40.636401457944885,,,,,,,,,,,,,,,,,,,,,,,,,,,,,,,,,,,,,,,,,,,,,,,,,,,,,,,,,,,,,,,,,40.61997445800807,40.636401457944885,41.618839207920246,41.63529841694981,42.62009170791134,"[8, 3, 1]",,,,,,,,,,,,,,,,,,,,,,,,,,,,,,,,,,,,,,,,,,,,,,999,2025-07-16_14h21.50.107,CGTriskyDMtask,2024.1.3,None,2025-07-16 14h22.06.625067 -0600,
,,,1,,,,,,,,,0,0,0,0,2,0,2,0,,,,,,,,,42.63576745800674,,,,,,,,,,,,,,,,,,,,,,,,,,,,,,,,,,,,,,,,,,,,,,,,,,,,,,,,,,,,,,,,,42.620480332989246,42.63576745800674,43.61920749989804,43.63532704196405,44.61876012489665,"[8, 3, 1]",,,,,,,,,,,,,,,,,,,,,,,,,,,,,,,,,,,,,,,,,,,,,,999,2025-07-16_14h21.50.107,CGTriskyDMtask,2024.1.3,None,2025-07-16 14h22.06.625067 -0600,
,,,1,,,,,,,,,0,0,0,0,,,,,,,,,,,,,,,,,,,,,,,,,,,,,,,,,,,,,,,,,,,,,,,,,,,,,,,,,,1,,,,,,,,,,,,,,,,,,,,,,,,,,44.618841207935475,44.63544883299619,44.63544883299619,44.63544883299619,0.007144417031668127,47.75310912495479,831,0.04666666666666667,-0.37666666666666665,1,0,0,cont_button,47.75395258294884,47.76894524996169,48.769719125004485,,,,,,,,,,,,,,,,,,,,,,,,,,,,,,999,2025-07-16_14h21.50.107,CGTriskyDMtask,2024.1.3,None,2025-07-16 14h22.06.625067 -0600,
,,,2,,,,,,,,,0,1,1,1,0,0,0,0,,,,,,,,,48.785330582992174,,,,,,,,,,,,,,,,,,,,,,,,,,,,,,,,,,,,,,,,,,,,,,,,,,,,,,,,,,,,,,,48.770092291990295,48.77052429190371,48.77129370800685,48.785330582992174,49.786465416895226,49.786465416895226,50.77090833289549,"[5, 9, 4, 2]",,,,,,,,,,,,,,,,,50.78607520798687,,,,,,,,,,,,,,,,,,,,,,,,,,,,,999,2025-07-16_14h21.50.107,CGTriskyDMtask,2024.1.3,None,2025-07-16 14h22.06.625067 -0600,
,,,2,,,,,,,,,0,1,1,1,1,0,1,0,,,,,,,,,50.78607520798687,,,,,,,,,,,,,,,,,,,,,,,,,,,,,,,,,,,,,,,,,,,,,,,,,,,,,,,,,,,,,,,,,50.77140058297664,50.78607520798687,51.78657524997834,51.78657524997834,52.769937000004575,"[5, 9, 4, 2]",,,,,,,,,,,,,,,,,52.78384570800699,,,,,,,,,,,,,,,,,,,,,,,,,,,,,999,2025-07-16_14h21.50.107,CGTriskyDMtask,2024.1.3,None,2025-07-16 14h22.06.625067 -0600,
,,,2,,,,,,,,,0,1,1,1,2,0,2,0,,,,,,,,,52.78384570800699,,,,,,,,,,,,,,,,,,,,,,,,,,,,,,,,,,,,,,,,,,,,,,,,,,,,,,,,,,,,,,,,,52.77035933290608,52.78384570800699,53.76985312497709,53.78387845796533,54.75441999989562,"[5, 9, 4, 2]",,,,,,,,,,,,,,,,,54.76982299995143,,,,,,,,,,,,,,,,,,,,,,,,,,,,,999,2025-07-16_14h21.50.107,CGTriskyDMtask,2024.1.3,None,2025-07-16 14h22.06.625067 -0600,
,,,2,,,,,,,,,0,1,1,1,3,0,3,0,,,,,,,,,54.76982299995143,,,,,,,,,,,,,,,,,,,,,,,,,,,,,,,,,,,,,,,,,,,,,,,,,,,,,,,,,,,,,,,,,54.754908000002615,54.76982299995143,55.770409207907505,55.770409207907505,56.753488249960355,"[5, 9, 4, 2]",,,,,,,,,,,,,,,,,56.76951116696,,,,,,,,,,,,,,,,,,,,,,,,,,,,,999,2025-07-16_14h21.50.107,CGTriskyDMtask,2024.1.3,None,2025-07-16 14h22.06.625067 -0600,
,,,2,,,,,,,,,0,1,1,1,,,,,,,,,,,,,,,,,,,,,,,,,,,,,,,,,,,,,,,,,,,,,,,,,,,,,,,,,,1,,,,,,,,,,,,,,,,,,,,,,,,,,56.75363541697152,56.76951116696,56.76951116696,56.76951116696,-0.0009584169602021575,60.068890041904524,5942,0.05333333333333334,-0.39,1,0,0,cont_button,60.069522249978036,60.08593416691292,61.086186999920756,,,,,,,,,,,,,,,,,,,,,,,,,,,,,,999,2025-07-16_14h21.50.107,CGTriskyDMtask,2024.1.3,None,2025-07-16 14h22.06.625067 -0600,
,,,3,,,,,,,,,0,2,2,2,0,0,0,0,,,,,,,,,61.10403816692997,,,,,,,,,,,,,,,,,,,,,,,,,,,,,,,,,,,,,,,,,,,,,,,,,,,,,,,,,,,,,,,61.08664133294951,61.08707158290781,61.088042541989125,61.10403816692997,62.10300862498116,62.117353791953065,63.08769358298741,"[2, 7, 8, 3, 5]",,,,,,,,,,,,,,,,,,,,,,,,,,,,,,,,,,,,,,,,,,,,,,999,2025-07-16_14h21.50.107,CGTriskyDMtask,2024.1.3,None,2025-07-16 14h22.06.625067 -0600,
,,,3,,,,,,,,,0,2,2,2,1,0,1,0,,,,,,,,,63.10384024993982,,,,,,,,,,,,,,,,,,,,,,,,,,,,,,,,,,,,,,,,,,,,,,,,,,,,,,,,,,,,,,,,,63.08820416696835,63.10384024993982,64.10371333290823,64.10371333290823,65.08777783298865,"[2, 7, 8, 3, 5]",,,,,,,,,,,,,,,,,,,,,,,,,,,,,,,,,,,,,,,,,,,,,,999,2025-07-16_14h21.50.107,CGTriskyDMtask,2024.1.3,None,2025-07-16 14h22.06.625067 -0600,
,,,3,,,,,,,,,0,2,2,2,2,0,2,0,,,,,,,,,65.10382616694551,,,,,,,,,,,,,,,,,,,,,,,,,,,,,,,,,,,,,,,,,,,,,,,,,,,,,,,,,,,,,,,,,65.08830995799508,65.10382616694551,66.1036440829048,66.1036440829048,67.08756133296993,"[2, 7, 8, 3, 5]",,,,,,,,,,,,,,,,,,,,,,,,,,,,,,,,,,,,,,,,,,,,,,999,2025-07-16_14h21.50.107,CGTriskyDMtask,2024.1.3,None,2025-07-16 14h22.06.625067 -0600,
,,,3,,,,,,,,,0,2,2,2,3,0,3,0,,,,,,,,,67.10370345797855,,,,,,,,,,,,,,,,,,,,,,,,,,,,,,,,,,,,,,,,,,,,,,,,,,,,,,,,,,,,,,,,,67.08805120794568,67.10370345797855,68.10272691689897,68.10272691689897,69.08782020793296,"[2, 7, 8, 3, 5]",,,,,,,,,,,,,,,,,,,,,,,,,,,,,,,,,,,,,,,,,,,,,,999,2025-07-16_14h21.50.107,CGTriskyDMtask,2024.1.3,None,2025-07-16 14h22.06.625067 -0600,
,,,3,,,,,,,,,0,2,2,2,4,0,4,0,,,,,,,,,69.10398899996653,,,,,,,,,,,,,,,,,,,,,,,,,,,,,,,,,,,,,,,,,,,,,,,,,,,,,,,,,,,,,,,,,69.0883197078947,69.10398899996653,70.10363529191818,70.10363529191818,71.08781341696158,"[2, 7, 8, 3, 5]",,,,,,,,,,,,,,,,,,,,,,,,,,,,,,,,,,,,,,,,,,,,,,999,2025-07-16_14h21.50.107,CGTriskyDMtask,2024.1.3,None,2025-07-16 14h22.06.625067 -0600,
,,,3,,,,,,,,,0,2,2,2,,,,,,,,,,,,,,,,,,,,,,,,,,,,,,,,,,,,,,,,,,,,,,,,,,,,,,,,,,1,,,,,,,,,,,,,,,,,,,,,,,,,,71.08797241700813,71.1033981249202,71.1033981249202,71.1033981249202,0.0016902079805731773,77.03601166699082,27835,-0.013333333333333334,-0.39444444444444443,1,0,0,cont_button,77.0367193329148,77.0512414999539,78.03572604199871,,78.0516736669233,,,,,,,,,,,,,,,,,,,,,,,,,,,,999,2025-07-16_14h21.50.107,CGTriskyDMtask,2024.1.3,None,2025-07-16 14h22.06.625067 -0600,
,,,4,,,,,,,,,0,3,3,3,0,0,0,0,,,,,,,,,78.0516736669233,,,,,,,,,,,,,,,,,,,,,,,,,,,,,,,,,,,,,,,,,,,,,,,,,,,,,,,,,,,,,,,78.03617533296347,78.03669562493451,78.03766733291559,78.0516736669233,79.03516133292578,79.05153179191984,80.02072974992916,"[7, 8, 3, 5, 1, 6]",,,,,,,,,,,,,,,,,80.03491324989591,,,,,,,,,,,,,,,,,,,,,,,,,,,,,999,2025-07-16_14h21.50.107,CGTriskyDMtask,2024.1.3,None,2025-07-16 14h22.06.625067 -0600,
,,,4,,,,,,,,,0,3,3,3,1,0,1,0,,,,,,,,,80.03491324989591,,,,,,,,,,,,,,,,,,,,,,,,,,,,,,,,,,,,,,,,,,,,,,,,,,,,,,,,,,,,,,,,,80.02116529189516,80.03491324989591,81.03526170796249,81.03526170796249,82.02139320794959,"[7, 8, 3, 5, 1, 6]",,,,,,,,,,,,,,,,,82.03502220800146,,,,,,,,,,,,,,,,,,,,,,,,,,,,,999,2025-07-16_14h21.50.107,CGTriskyDMtask,2024.1.3,None,2025-07-16 14h22.06.625067 -0600,
,,,4,,,,,,,,,0,3,3,3,2,0,2,0,,,,,,,,,82.03502220800146,,,,,,,,,,,,,,,,,,,,,,,,,,,,,,,,,,,,,,,,,,,,,,,,,,,,,,,,,,,,,,,,,82.02190058294218,82.03502220800146,83.0352341249818,83.0352341249818,84.02143333293498,"[7, 8, 3, 5, 1, 6]",,,,,,,,,,,,,,,,,84.03538833290804,,,,,,,,,,,,,,,,,,,,,,,,,,,,,999,2025-07-16_14h21.50.107,CGTriskyDMtask,2024.1.3,None,2025-07-16 14h22.06.625067 -0600,
,,,4,,,,,,,,,0,3,3,3,3,0,3,0,,,,,,,,,84.03538833290804,,,,,,,,,,,,,,,,,,,,,,,,,,,,,,,,,,,,,,,,,,,,,,,,,,,,,,,,,,,,,,,,,84.0219663749449,84.03538833290804,85.03525449999142,85.03525449999142,86.021981124999,"[7, 8, 3, 5, 1, 6]",,,,,,,,,,,,,,,,,86.03515904198866,,,,,,,,,,,,,,,,,,,,,,,,,,,,,999,2025-07-16_14h21.50.107,CGTriskyDMtask,2024.1.3,None,2025-07-16 14h22.06.625067 -0600,
,,,4,,,,,,,,,0,3,3,3,4,0,4,0,,,,,,,,,86.03515904198866,,,,,,,,,,,,,,,,,,,,,,,,,,,,,,,,,,,,,,,,,,,,,,,,,,,,,,,,,,,,,,,,,86.02249466697685,86.03515904198866,87.03524100000504,87.03524100000504,88.02107554196846,"[7, 8, 3, 5, 1, 6]",,,,,,,,,,,,,,,,,88.03529466700274,,,,,,,,,,,,,,,,,,,,,,,,,,,,,999,2025-07-16_14h21.50.107,CGTriskyDMtask,2024.1.3,None,2025-07-16 14h22.06.625067 -0600,
,,,4,,,,,,,,,0,3,3,3,5,0,5,0,,,,,,,,,88.03529466700274,,,,,,,,,,,,,,,,,,,,,,,,,,,,,,,,,,,,,,,,,,,,,,,,,,,,,,,,,,,,,,,,,88.0214935829863,88.03529466700274,89.03543670789804,89.03543670789804,90.0223388329614,"[7, 8, 3, 5, 1, 6]",,,,,,,,,,,,,,,,,90.03574883297551,,,,,,,,,,,,,,,,,,,,,,,,,,,,,999,2025-07-16_14h21.50.107,CGTriskyDMtask,2024.1.3,None,2025-07-16 14h22.06.625067 -0600,
,,,4,,,,,,,,,0,3,3,3,,,,,,,,,,,,,,,,,,,,,,,,,,,,,,,,,,,,,,,,,,,,,,,,,,,,,,,,,,1,,,,,,,,,,,,,,,,,,,,,,,,,,90.022492374992,90.03574883297551,90.03574883297551,90.03574883297551,-0.0008672920521348715,94.70592158299405,783516,-0.012222222222222223,-0.4111111111111111,1,0,0,cont_button,94.70670491689816,94.72130458289757,95.70604333293159,,95.7217379999347,,,,,,,,,,,,,,,,,,,,,,,,,,,,999,2025-07-16_14h21.50.107,CGTriskyDMtask,2024.1.3,None,2025-07-16 14h22.06.625067 -0600,
,,,5,,,,,,,,,0,4,4,4,0,0,0,0,,,,,,,,,95.7217379999347,,,,,,,,,,,,,,,,,,,,,,,,,,,,,,,,,,,,,,,,,,,,,,,,,,,,,,,,,,,,,,,95.70643945795018,95.70690854196437,95.70778829196934,95.7217379999347,96.72190737491474,96.72190737491474,97.7062435830012,"[3, 8, 7, 1, 9, 2, 5]",,,,,,,,,,,,,,,,,97.72139062499627,,,,,,,,,,,,,,,,,,,,,,,,,,,,,999,2025-07-16_14h21.50.107,CGTriskyDMtask,2024.1.3,None,2025-07-16 14h22.06.625067 -0600,
,,,5,,,,,,,,,0,4,4,4,1,0,1,0,,,,,,,,,97.72139062499627,,,,,,,,,,,,,,,,,,,,,,,,,,,,,,,,,,,,,,,,,,,,,,,,,,,,,,,,,,,,,,,,,97.70675733289681,97.72139062499627,98.72210279200226,98.72210279200226,99.70545345800929,"[3, 8, 7, 1, 9, 2, 5]",,,,,,,,,,,,,,,,,99.72157458297443,,,,,,,,,,,,,,,,,,,,,,,,,,,,,999,2025-07-16_14h21.50.107,CGTriskyDMtask,2024.1.3,None,2025-07-16 14h22.06.625067 -0600,
,,,5,,,,,,,,,0,4,4,4,2,0,2,0,,,,,,,,,99.72157458297443,,,,,,,,,,,,,,,,,,,,,,,,,,,,,,,,,,,,,,,,,,,,,,,,,,,,,,,,,,,,,,,,,99.70597020792775,99.72157458297443,100.72224874992389,100.72224874992389,101.70585862500593,"[3, 8, 7, 1, 9, 2, 5]",,,,,,,,,,,,,,,,,101.72101554193068,,,,,,,,,,,,,,,,,,,,,,,,,,,,,999,2025-07-16_14h21.50.107,CGTriskyDMtask,2024.1.3,None,2025-07-16 14h22.06.625067 -0600,
,,,5,,,,,,,,,0,4,4,4,3,0,3,0,,,,,,,,,101.72101554193068,,,,,,,,,,,,,,,,,,,,,,,,,,,,,,,,,,,,,,,,,,,,,,,,,,,,,,,,,,,,,,,,,101.70638154190965,101.72101554193068,102.72229633294046,102.72229633294046,103.70556329190731,"[3, 8, 7, 1, 9, 2, 5]",,,,,,,,,,,,,,,,,103.72139741689898,,,,,,,,,,,,,,,,,,,,,,,,,,,,,999,2025-07-16_14h21.50.107,CGTriskyDMtask,2024.1.3,None,2025-07-16 14h22.06.625067 -0600,
,,,5,,,,,,,,,0,4,4,4,4,0,4,0,,,,,,,,,103.72139741689898,,,,,,,,,,,,,,,,,,,,,,,,,,,,,,,,,,,,,,,,,,,,,,,,,,,,,,,,,,,,,,,,,103.7060849579284,103.72139741689898,104.72222179197706,104.72222179197706,105.70526654191781,"[3, 8, 7, 1, 9, 2, 5]",,,,,,,,,,,,,,,,,105.72140445793048,,,,,,,,,,,,,,,,,,,,,,,,,,,,,999,2025-07-16_14h21.50.107,CGTriskyDMtask,2024.1.3,None,2025-07-16 14h22.06.625067 -0600,
,,,5,,,,,,,,,0,4,4,4,5,0,5,0,,,,,,,,,105.72140445793048,,,,,,,,,,,,,,,,,,,,,,,,,,,,,,,,,,,,,,,,,,,,,,,,,,,,,,,,,,,,,,,,,105.70578104199376,105.72140445793048,106.72232345794328,106.72232345794328,107.70669070794247,"[3, 8, 7, 1, 9, 2, 5]",,,,,,,,,,,,,,,,,107.7218170419801,,,,,,,,,,,,,,,,,,,,,,,,,,,,,999,2025-07-16_14h21.50.107,CGTriskyDMtask,2024.1.3,None,2025-07-16 14h22.06.625067 -0600,
,,,5,,,,,,,,,0,4,4,4,6,0,6,0,,,,,,,,,107.7218170419801,,,,,,,,,,,,,,,,,,,,,,,,,,,,,,,,,,,,,,,,,,,,,,,,,,,,,,,,,,,,,,,,,107.70720591698773,107.7218170419801,108.72231929190457,108.72231929190457,109.70565766689833,"[3, 8, 7, 1, 9, 2, 5]",,,,,,,,,,,,,,,,,109.73638866690453,,,,,,,,,,,,,,,,,,,,,,,,,,,,,999,2025-07-16_14h21.50.107,CGTriskyDMtask,2024.1.3,None,2025-07-16 14h22.06.625067 -0600,
,,,5,,,,,,,,,0,4,4,4,,,,,,,,,,,,,,,,,,,,,,,,,,,,,,,,,,,,,,,,,,,,,,,,,,,,,,,,,,1,,,,,,,,,,,,,,,,,,,,,,,,,,109.70583933300804,109.73638866690453,109.73638866690453,109.73638866690453,-0.0003310409374535084,115.77382070792373,3871925,0.04666666666666667,-0.4177777777777778,1,0,0,cont_button,115.77451974991709,115.78640558291227,116.77358170796651,,116.78618212498259,,,,,,,,,,,,,,,,,,,,,,,,,,,,999,2025-07-16_14h21.50.107,CGTriskyDMtask,2024.1.3,None,2025-07-16 14h22.06.625067 -0600,
,,,6,,,,,,,,,0,5,5,5,0,0,0,0,,,,,,,,,116.78618212498259,,,,,,,,,,,,,,,,,,,,,,,,,,,,,,,,,,,,,,,,,,,,,,,,,,,,,,,,,,,,,,,116.77394795790315,116.77436883293558,116.77523091691546,116.78618212498259,117.7867127499776,117.7867127499776,118.7732024169527,"[4, 1, 7, 6, 9, 2, 5, 3]",,,,,,,,,,,,,,,,,118.78680516697932,,,,,,,,,,,,,,,,,,,,,,,,,,,,,999,2025-07-16_14h21.50.107,CGTriskyDMtask,2024.1.3,None,2025-07-16 14h22.06.625067 -0600,
,,,6,,,,,,,,,0,5,5,5,1,0,1,0,,,,,,,,,118.78680516697932,,,,,,,,,,,,,,,,,,,,,,,,,,,,,,,,,,,,,,,,,,,,,,,,,,,,,,,,,,,,,,,,,118.77363854192663,118.78680516697932,119.78669341700152,119.78669341700152,120.77370591694489,"[4, 1, 7, 6, 9, 2, 5, 3]",,,,,,,,,,,,,,,,,120.7866237499984,,,,,,,,,,,,,,,,,,,,,,,,,,,,,999,2025-07-16_14h21.50.107,CGTriskyDMtask,2024.1.3,None,2025-07-16 14h22.06.625067 -0600,
,,,6,,,,,,,,,0,5,5,5,2,0,2,0,,,,,,,,,120.7866237499984,,,,,,,,,,,,,,,,,,,,,,,,,,,,,,,,,,,,,,,,,,,,,,,,,,,,,,,,,,,,,,,,,120.77414433297236,120.7866237499984,121.78678649989888,121.78678649989888,122.77357066690456,"[4, 1, 7, 6, 9, 2, 5, 3]",,,,,,,,,,,,,,,,,122.78676724992692,,,,,,,,,,,,,,,,,,,,,,,,,,,,,999,2025-07-16_14h21.50.107,CGTriskyDMtask,2024.1.3,None,2025-07-16 14h22.06.625067 -0600,
,,,6,,,,,,,,,0,5,5,5,3,0,3,0,,,,,,,,,122.78676724992692,,,,,,,,,,,,,,,,,,,,,,,,,,,,,,,,,,,,,,,,,,,,,,,,,,,,,,,,,,,,,,,,,122.77402066695504,122.78676724992692,123.78683737490792,123.78683737490792,124.77364612498786,"[4, 1, 7, 6, 9, 2, 5, 3]",,,,,,,,,,,,,,,,,124.7869754579151,,,,,,,,,,,,,,,,,,,,,,,,,,,,,999,2025-07-16_14h21.50.107,CGTriskyDMtask,2024.1.3,None,2025-07-16 14h22.06.625067 -0600,
,,,6,,,,,,,,,0,5,5,5,4,0,4,0,,,,,,,,,124.7869754579151,,,,,,,,,,,,,,,,,,,,,,,,,,,,,,,,,,,,,,,,,,,,,,,,,,,,,,,,,,,,,,,,,124.77407633292023,124.7869754579151,125.78685720800422,125.78685720800422,126.77384879195597,"[4, 1, 7, 6, 9, 2, 5, 3]",,,,,,,,,,,,,,,,,126.78709920798428,,,,,,,,,,,,,,,,,,,,,,,,,,,,,999,2025-07-16_14h21.50.107,CGTriskyDMtask,2024.1.3,None,2025-07-16 14h22.06.625067 -0600,
,,,6,,,,,,,,,0,5,5,5,5,0,5,0,,,,,,,,,126.78709920798428,,,,,,,,,,,,,,,,,,,,,,,,,,,,,,,,,,,,,,,,,,,,,,,,,,,,,,,,,,,,,,,,,126.77429437497631,126.78709920798428,127.77238362492062,127.7871306668967,128.7572988329921,"[4, 1, 7, 6, 9, 2, 5, 3]",,,,,,,,,,,,,,,,,128.77305620792322,,,,,,,,,,,,,,,,,,,,,,,,,,,,,999,2025-07-16_14h21.50.107,CGTriskyDMtask,2024.1.3,None,2025-07-16 14h22.06.625067 -0600,
,,,6,,,,,,,,,0,5,5,5,6,0,6,0,,,,,,,,,128.77305620792322,,,,,,,,,,,,,,,,,,,,,,,,,,,,,,,,,,,,,,,,,,,,,,,,,,,,,,,,,,,,,,,,,128.757826291956,128.77305620792322,129.7891575829126,129.7891575829126,130.77418320800643,"[4, 1, 7, 6, 9, 2, 5, 3]",,,,,,,,,,,,,,,,,130.78955479199067,,,,,,,,,,,,,,,,,,,,,,,,,,,,,999,2025-07-16_14h21.50.107,CGTriskyDMtask,2024.1.3,None,2025-07-16 14h22.06.625067 -0600,
,,,6,,,,,,,,,0,5,5,5,7,0,7,0,,,,,,,,,130.78955479199067,,,,,,,,,,,,,,,,,,,,,,,,,,,,,,,,,,,,,,,,,,,,,,,,,,,,,,,,,,,,,,,,,130.77472099999432,130.78955479199067,131.78892037493642,131.78892037493642,132.77484445797745,"[4, 1, 7, 6, 9, 2, 5, 3]",,,,,,,,,,,,,,,,,132.79025033290964,,,,,,,,,,,,,,,,,,,,,,,,,,,,,999,2025-07-16_14h21.50.107,CGTriskyDMtask,2024.1.3,None,2025-07-16 14h22.06.625067 -0600,
,,,6,,,,,,,,,0,5,5,5,,,,,,,,,,,,,,,,,,,,,,,,,,,,,,,,,,,,,,,,,,,,,,,,,,,,,,,,,,0,,,,,,,,,,,,,,,,,,,,,,,,,,132.77499970793724,132.79025033290964,132.79025033290964,132.79025033290964,0.001381583046168089,139.04095458297525,41769231,0.04666666666666667,-0.4177777777777778,1,0,0,cont_button,139.04158433293924,139.05655124993064,140.0410035419045,,140.05577549990267,,,,,,,,,,,,,,,,,,,,,,,,,,,,999,2025-07-16_14h21.50.107,CGTriskyDMtask,2024.1.3,None,2025-07-16 14h22.06.625067 -0600,
,,,7,,,,,,,,,0,6,6,6,0,0,0,0,,,,,,,,,140.05577549990267,,,,,,,,,,,,,,,,,,,,,,,,,,,,,,,,,,,,,,,,,,,,,,,,,,,,,,,,,,,,,,,140.04137366695795,140.04181899991818,140.0426826250041,140.05577549990267,141.05699970794376,141.05699970794376,142.04043891699985,"[6, 3, 8, 7, 5, 1, 9, 2]",,,,,,,,,,,,,,,,,142.05690420791507,,,,,,,,,,,,,,,,,,,,,,,,,,,,,999,2025-07-16_14h21.50.107,CGTriskyDMtask,2024.1.3,None,2025-07-16 14h22.06.625067 -0600,
,,,7,,,,,,,,,0,6,6,6,1,0,1,0,,,,,,,,,142.05690420791507,,,,,,,,,,,,,,,,,,,,,,,,,,,,,,,,,,,,,,,,,,,,,,,,,,,,,,,,,,,,,,,,,142.04087549995165,142.05690420791507,143.05708820791915,143.05708820791915,144.04042254190426,"[6, 3, 8, 7, 5, 1, 9, 2]",,,,,,,,,,,,,,,,,144.0577021249337,,,,,,,,,,,,,,,,,,,,,,,,,,,,,999,2025-07-16_14h21.50.107,CGTriskyDMtask,2024.1.3,None,2025-07-16 14h22.06.625067 -0600,
,,,7,,,,,,,,,0,6,6,6,2,0,2,0,,,,,,,,,144.0577021249337,,,,,,,,,,,,,,,,,,,,,,,,,,,,,,,,,,,,,,,,,,,,,,,,,,,,,,,,,,,,,,,,,144.04093333298806,144.0577021249337,145.0571262500016,145.0571262500016,146.0415234999964,"[6, 3, 8, 7, 5, 1, 9, 2]",,,,,,,,,,,,,,,,,146.05682695796713,,,,,,,,,,,,,,,,,,,,,,,,,,,,,999,2025-07-16_14h21.50.107,CGTriskyDMtask,2024.1.3,None,2025-07-16 14h22.06.625067 -0600,
,,,7,,,,,,,,,0,6,6,6,3,0,3,0,,,,,,,,,146.05682695796713,,,,,,,,,,,,,,,,,,,,,,,,,,,,,,,,,,,,,,,,,,,,,,,,,,,,,,,,,,,,,,,,,146.0420345829334,146.05682695796713,147.05689387500752,147.05689387500752,148.041375999921,"[6, 3, 8, 7, 5, 1, 9, 2]",,,,,,,,,,,,,,,,,148.05732695793267,,,,,,,,,,,,,,,,,,,,,,,,,,,,,999,2025-07-16_14h21.50.107,CGTriskyDMtask,2024.1.3,None,2025-07-16 14h22.06.625067 -0600,
,,,7,,,,,,,,,0,6,6,6,4,0,4,0,,,,,,,,,148.05732695793267,,,,,,,,,,,,,,,,,,,,,,,,,,,,,,,,,,,,,,,,,,,,,,,,,,,,,,,,,,,,,,,,,148.04182325000875,148.05732695793267,149.0573049999075,149.0573049999075,150.04189324995968,"[6, 3, 8, 7, 5, 1, 9, 2]",,,,,,,,,,,,,,,,,150.05725066689774,,,,,,,,,,,,,,,,,,,,,,,,,,,,,999,2025-07-16_14h21.50.107,CGTriskyDMtask,2024.1.3,None,2025-07-16 14h22.06.625067 -0600,
,,,7,,,,,,,,,0,6,6,6,5,0,5,0,,,,,,,,,150.05725066689774,,,,,,,,,,,,,,,,,,,,,,,,,,,,,,,,,,,,,,,,,,,,,,,,,,,,,,,,,,,,,,,,,150.04246733291075,150.05725066689774,151.0576205829857,151.0576205829857,152.04189370793756,"[6, 3, 8, 7, 5, 1, 9, 2]",,,,,,,,,,,,,,,,,152.0578991669463,,,,,,,,,,,,,,,,,,,,,,,,,,,,,999,2025-07-16_14h21.50.107,CGTriskyDMtask,2024.1.3,None,2025-07-16 14h22.06.625067 -0600,
,,,7,,,,,,,,,0,6,6,6,6,0,6,0,,,,,,,,,152.0578991669463,,,,,,,,,,,,,,,,,,,,,,,,,,,,,,,,,,,,,,,,,,,,,,,,,,,,,,,,,,,,,,,,,152.0425730419811,152.0578991669463,153.0572580419248,153.0572580419248,154.0422882499406,"[6, 3, 8, 7, 5, 1, 9, 2]",,,,,,,,,,,,,,,,,154.05739862495102,,,,,,,,,,,,,,,,,,,,,,,,,,,,,999,2025-07-16_14h21.50.107,CGTriskyDMtask,2024.1.3,None,2025-07-16 14h22.06.625067 -0600,
,,,7,,,,,,,,,0,6,6,6,7,0,7,0,,,,,,,,,154.05739862495102,,,,,,,,,,,,,,,,,,,,,,,,,,,,,,,,,,,,,,,,,,,,,,,,,,,,,,,,,,,,,,,,,154.04282999993302,154.05739862495102,155.0576977499295,155.0576977499295,156.0416067079641,"[6, 3, 8, 7, 5, 1, 9, 2]",,,,,,,,,,,,,,,,,156.0574293329846,,,,,,,,,,,,,,,,,,,,,,,,,,,,,999,2025-07-16_14h21.50.107,CGTriskyDMtask,2024.1.3,None,2025-07-16 14h22.06.625067 -0600,
,,,7,,,,,,,,,0,6,6,6,,,,,,,,,,,,,,,,,,,,,,,,,,,,,,,,,,,,,,,,,,,,,,,,,,,,,,,,,,0,,,,,,,,,,,,,,,,,,,,,,,,,,156.04177270794753,156.0574293329846,156.0574293329846,156.0574293329846,0.0006891250377520919,161.10772799991537,8654,0.04666666666666667,-0.4177777777777778,1,0,0,cont_button,161.10837945796084,161.1238891669782,162.1085132919252,,,,,,,,,,,,,,,,,,,,,,,,,,,,,,999,2025-07-16_14h21.50.107,CGTriskyDMtask,2024.1.3,None,2025-07-16 14h22.06.625067 -0600,
,,,8,,,,,,,,,0,7,7,7,0,0,0,0,,,,,,,,,162.1241882079048,,,,,,,,,,,,,,,,,,,,,,,,,,,,,,,,,,,,,,,,,,,,,,,,,,,,,,,,,,,,,,,162.10895237489603,162.1095184579026,162.11064291698858,162.1241882079048,163.12378445791546,163.12378445791546,164.10896354191937,"[5, 1, 2, 7, 9, 3, 4]",,,,,,,,,,,,,,,,,164.12416408292484,,,,,,,,,,,,,,,,,,,,,,,,,,,,,999,2025-07-16_14h21.50.107,CGTriskyDMtask,2024.1.3,None,2025-07-16 14h22.06.625067 -0600,
,,,8,,,,,,,,,0,7,7,7,1,0,1,0,,,,,,,,,164.12416408292484,,,,,,,,,,,,,,,,,,,,,,,,,,,,,,,,,,,,,,,,,,,,,,,,,,,,,,,,,,,,,,,,,164.10947745793965,164.12416408292484,165.12518362491392,165.12518362491392,166.12430658296216,"[5, 1, 2, 7, 9, 3, 4]",,,,,,,,,,,,,,,,,,,,,,,,,,,,,,,,,,,,,,,,,,,,,,999,2025-07-16_14h21.50.107,CGTriskyDMtask,2024.1.3,None,2025-07-16 14h22.06.625067 -0600,
,,,8,,,,,,,,,0,7,7,7,2,0,2,0,,,,,,,,,166.13857716694474,,,,,,,,,,,,,,,,,,,,,,,,,,,,,,,,,,,,,,,,,,,,,,,,,,,,,,,,,,,,,,,,,166.12481583293993,166.13857716694474,167.12472229194827,167.1390008329181,168.10757220792584,"[5, 1, 2, 7, 9, 3, 4]",,,,,,,,,,,,,,,,,168.1244065829087,,,,,,,,,,,,,,,,,,,,,,,,,,,,,999,2025-07-16_14h21.50.107,CGTriskyDMtask,2024.1.3,None,2025-07-16 14h22.06.625067 -0600,
,,,8,,,,,,,,,0,7,7,7,3,0,3,0,,,,,,,,,168.1244065829087,,,,,,,,,,,,,,,,,,,,,,,,,,,,,,,,,,,,,,,,,,,,,,,,,,,,,,,,,,,,,,,,,168.10786679200828,168.1244065829087,169.12502916692756,169.12502916692756,170.10933845792897,"[5, 1, 2, 7, 9, 3, 4]",,,,,,,,,,,,,,,,,170.12443670793436,,,,,,,,,,,,,,,,,,,,,,,,,,,,,999,2025-07-16_14h21.50.107,CGTriskyDMtask,2024.1.3,None,2025-07-16 14h22.06.625067 -0600,
,,,8,,,,,,,,,0,7,7,7,4,0,4,0,,,,,,,,,170.12443670793436,,,,,,,,,,,,,,,,,,,,,,,,,,,,,,,,,,,,,,,,,,,,,,,,,,,,,,,,,,,,,,,,,170.10987270798068,170.12443670793436,171.125365416985,171.125365416985,172.10879279195797,"[5, 1, 2, 7, 9, 3, 4]",,,,,,,,,,,,,,,,,172.12540287489537,,,,,,,,,,,,,,,,,,,,,,,,,,,,,999,2025-07-16_14h21.50.107,CGTriskyDMtask,2024.1.3,None,2025-07-16 14h22.06.625067 -0600,
,,,8,,,,,,,,,0,7,7,7,5,0,5,0,,,,,,,,,172.12540287489537,,,,,,,,,,,,,,,,,,,,,,,,,,,,,,,,,,,,,,,,,,,,,,,,,,,,,,,,,,,,,,,,,172.10924549994525,172.12540287489537,173.12409837497398,173.12409837497398,174.10886633291375,"[5, 1, 2, 7, 9, 3, 4]",,,,,,,,,,,,,,,,,174.12422112491913,,,,,,,,,,,,,,,,,,,,,,,,,,,,,999,2025-07-16_14h21.50.107,CGTriskyDMtask,2024.1.3,None,2025-07-16 14h22.06.625067 -0600,
,,,8,,,,,,,,,0,7,7,7,6,0,6,0,,,,,,,,,174.12422112491913,,,,,,,,,,,,,,,,,,,,,,,,,,,,,,,,,,,,,,,,,,,,,,,,,,,,,,,,,,,,,,,,,174.10929741698783,174.12422112491913,175.12535291700624,175.12535291700624,176.10949462500867,"[5, 1, 2, 7, 9, 3, 4]",,,,,,,,,,,,,,,,,176.12564166693483,,,,,,,,,,,,,,,,,,,,,,,,,,,,,999,2025-07-16_14h21.50.107,CGTriskyDMtask,2024.1.3,None,2025-07-16 14h22.06.625067 -0600,
,,,8,,,,,,,,,0,7,7,7,,,,,,,,,,,,,,,,,,,,,,,,,,,,,,,,,,,,,,,,,,,,,,,,,,,,,,,,,,0,,,,,,,,,,,,,,,,,,,,,,,,,,176.109645874938,176.12564166693483,176.12564166693483,176.12564166693483,0.000861500040628016,178.85916233295575,09876543,0.042222222222222223,-0.38555555555555554,1,0,0,cont_button,178.85980758292135,178.87368441699073,179.85990816692356,,179.8745896249311,,,,,,,,,,,,,,,,,,,,,,,,,,,,999,2025-07-16_14h21.50.107,CGTriskyDMtask,2024.1.3,None,2025-07-16 14h22.06.625067 -0600,
,,,9,,,,,,,,,0,8,8,8,0,0,0,0,,,,,,,,,179.8745896249311,,,,,,,,,,,,,,,,,,,,,,,,,,,,,,,,,,,,,,,,,,,,,,,,,,,,,,,,,,,,,,,179.86034374998417,179.86081866698805,179.86178320797626,179.8745896249311,180.87457591691054,180.87457591691054,181.85945308289956,"[7, 3, 4, 1, 5, 9, 2]",,,,,,,,,,,,,,,,,181.87510483292863,,,,,,,,,,,,,,,,,,,,,,,,,,,,,999,2025-07-16_14h21.50.107,CGTriskyDMtask,2024.1.3,None,2025-07-16 14h22.06.625067 -0600,
,,,9,,,,,,,,,0,8,8,8,1,0,1,0,,,,,,,,,181.87510483292863,,,,,,,,,,,,,,,,,,,,,,,,,,,,,,,,,,,,,,,,,,,,,,,,,,,,,,,,,,,,,,,,,181.85996425000485,181.87510483292863,182.874614332919,182.874614332919,183.85951874998864,"[7, 3, 4, 1, 5, 9, 2]",,,,,,,,,,,,,,,,,183.87563308293466,,,,,,,,,,,,,,,,,,,,,,,,,,,,,999,2025-07-16_14h21.50.107,CGTriskyDMtask,2024.1.3,None,2025-07-16 14h22.06.625067 -0600,
,,,9,,,,,,,,,0,8,8,8,2,0,2,0,,,,,,,,,183.87563308293466,,,,,,,,,,,,,,,,,,,,,,,,,,,,,,,,,,,,,,,,,,,,,,,,,,,,,,,,,,,,,,,,,183.85996187489945,183.87563308293466,184.87469566694926,184.87469566694926,185.8600761248963,"[7, 3, 4, 1, 5, 9, 2]",,,,,,,,,,,,,,,,,185.875112916925,,,,,,,,,,,,,,,,,,,,,,,,,,,,,999,2025-07-16_14h21.50.107,CGTriskyDMtask,2024.1.3,None,2025-07-16 14h22.06.625067 -0600,
,,,9,,,,,,,,,0,8,8,8,3,0,3,0,,,,,,,,,185.875112916925,,,,,,,,,,,,,,,,,,,,,,,,,,,,,,,,,,,,,,,,,,,,,,,,,,,,,,,,,,,,,,,,,185.8605968329357,185.875112916925,186.87498920795042,186.87498920795042,187.86036866693757,"[7, 3, 4, 1, 5, 9, 2]",,,,,,,,,,,,,,,,,187.87531645793933,,,,,,,,,,,,,,,,,,,,,,,,,,,,,999,2025-07-16_14h21.50.107,CGTriskyDMtask,2024.1.3,None,2025-07-16 14h22.06.625067 -0600,
,,,9,,,,,,,,,0,8,8,8,4,0,4,0,,,,,,,,,187.87531645793933,,,,,,,,,,,,,,,,,,,,,,,,,,,,,,,,,,,,,,,,,,,,,,,,,,,,,,,,,,,,,,,,,187.86088212497998,187.87531645793933,188.87567612493876,188.87567612493876,189.8599094169913,"[7, 3, 4, 1, 5, 9, 2]",,,,,,,,,,,,,,,,,189.87582487496547,,,,,,,,,,,,,,,,,,,,,,,,,,,,,999,2025-07-16_14h21.50.107,CGTriskyDMtask,2024.1.3,None,2025-07-16 14h22.06.625067 -0600,
,,,9,,,,,,,,,0,8,8,8,5,0,5,0,,,,,,,,,189.87582487496547,,,,,,,,,,,,,,,,,,,,,,,,,,,,,,,,,,,,,,,,,,,,,,,,,,,,,,,,,,,,,,,,,189.86034308292437,189.87582487496547,190.87507529195864,190.87507529195864,191.860037916922,"[7, 3, 4, 1, 5, 9, 2]",,,,,,,,,,,,,,,,,191.87585404189304,,,,,,,,,,,,,,,,,,,,,,,,,,,,,999,2025-07-16_14h21.50.107,CGTriskyDMtask,2024.1.3,None,2025-07-16 14h22.06.625067 -0600,
,,,9,,,,,,,,,0,8,8,8,6,0,6,0,,,,,,,,,191.87585404189304,,,,,,,,,,,,,,,,,,,,,,,,,,,,,,,,,,,,,,,,,,,,,,,,,,,,,,,,,,,,,,,,,191.860567583004,191.87585404189304,192.87610024993774,192.87610024993774,193.86004454200156,"[7, 3, 4, 1, 5, 9, 2]",,,,,,,,,,,,,,,,,193.87574170797598,,,,,,,,,,,,,,,,,,,,,,,,,,,,,999,2025-07-16_14h21.50.107,CGTriskyDMtask,2024.1.3,None,2025-07-16 14h22.06.625067 -0600,
,,,9,,,,,,,,,0,8,8,8,,,,,,,,,,,,,,,,,,,,,,,,,,,,,,,,,,,,,,,,,,,,,,,,,,,,,,,,,,0,,,,,,,,,,,,,,,,,,,,,,,,,,193.86019820789807,193.87574170797598,193.87574170797598,193.87574170797598,0.00012008391786366701,196.9433692919556,987654,0.03222222222222222,-0.42,1,0,0,cont_button,196.94402458297554,196.95832804194652,197.95973587490153,,,,,,,,,,,,,,,,,,,,,,,,,,,,,,999,2025-07-16_14h21.50.107,CGTriskyDMtask,2024.1.3,None,2025-07-16 14h22.06.625067 -0600,
,,,10,,,,,,,,,0,9,9,9,0,0,0,0,,,,,,,,,197.9766047919402,,,,,,,,,,,,,,,,,,,,,,,,,,,,,,,,,,,,,,,,,,,,,,,,,,,,,,,,,,,,,,,197.96009641699493,197.96049983298872,197.96132637490518,197.9766047919402,198.97617458296008,198.97617458296008,199.96058412489947,"[8, 1, 6, 3, 7, 4]",,,,,,,,,,,,,,,,,199.97626837494317,,,,,,,,,,,,,,,,,,,,,,,,,,,,,999,2025-07-16_14h21.50.107,CGTriskyDMtask,2024.1.3,None,2025-07-16 14h22.06.625067 -0600,
,,,10,,,,,,,,,0,9,9,9,1,0,1,0,,,,,,,,,199.97626837494317,,,,,,,,,,,,,,,,,,,,,,,,,,,,,,,,,,,,,,,,,,,,,,,,,,,,,,,,,,,,,,,,,199.96100149990525,199.97626837494317,200.97626424999908,200.97626424999908,201.96011387498584,"[8, 1, 6, 3, 7, 4]",,,,,,,,,,,,,,,,,201.9764947919175,,,,,,,,,,,,,,,,,,,,,,,,,,,,,999,2025-07-16_14h21.50.107,CGTriskyDMtask,2024.1.3,None,2025-07-16 14h22.06.625067 -0600,
,,,10,,,,,,,,,0,9,9,9,2,0,2,0,,,,,,,,,201.9764947919175,,,,,,,,,,,,,,,,,,,,,,,,,,,,,,,,,,,,,,,,,,,,,,,,,,,,,,,,,,,,,,,,,201.96055512491148,201.9764947919175,202.976045666961,202.976045666961,203.96104258298874,"[8, 1, 6, 3, 7, 4]",,,,,,,,,,,,,,,,,203.9757409580052,,,,,,,,,,,,,,,,,,,,,,,,,,,,,999,2025-07-16_14h21.50.107,CGTriskyDMtask,2024.1.3,None,2025-07-16 14h22.06.625067 -0600,
,,,10,,,,,,,,,0,9,9,9,3,0,3,0,,,,,,,,,203.9757409580052,,,,,,,,,,,,,,,,,,,,,,,,,,,,,,,,,,,,,,,,,,,,,,,,,,,,,,,,,,,,,,,,,203.96155137498863,203.9757409580052,204.9762570830062,204.9762570830062,205.96069279196672,"[8, 1, 6, 3, 7, 4]",,,,,,,,,,,,,,,,,,,,,,,,,,,,,,,,,,,,,,,,,,,,,,999,2025-07-16_14h21.50.107,CGTriskyDMtask,2024.1.3,None,2025-07-16 14h22.06.625067 -0600,
,,,10,,,,,,,,,0,9,9,9,4,0,4,0,,,,,,,,,205.97635654197074,,,,,,,,,,,,,,,,,,,,,,,,,,,,,,,,,,,,,,,,,,,,,,,,,,,,,,,,,,,,,,,,,205.96110741689336,205.97635654197074,206.97643154195976,206.97643154195976,207.96057929191738,"[8, 1, 6, 3, 7, 4]",,,,,,,,,,,,,,,,,,,,,,,,,,,,,,,,,,,,,,,,,,,,,,999,2025-07-16_14h21.50.107,CGTriskyDMtask,2024.1.3,None,2025-07-16 14h22.06.625067 -0600,
,,,10,,,,,,,,,0,9,9,9,5,0,5,0,,,,,,,,,207.9766585829202,,,,,,,,,,,,,,,,,,,,,,,,,,,,,,,,,,,,,,,,,,,,,,,,,,,,,,,,,,,,,,,,,207.96107520791702,207.9766585829202,208.97619554190896,208.97619554190896,209.96050308295526,"[8, 1, 6, 3, 7, 4]",,,,,,,,,,,,,,,,,209.97609112493228,,,,,,,,,,,,,,,,,,,,,,,,,,,,,999,2025-07-16_14h21.50.107,CGTriskyDMtask,2024.1.3,None,2025-07-16 14h22.06.625067 -0600,
,,,10,,,,,,,,,0,9,9,9,,,,,,,,,,,,,,,,,,,,,,,,,,,,,,,,,,,,,,,,,,,,,,,,,,,,,,,,,,0,,,,,,,,,,,,,,,,,,,,,,,,,,209.96063220791984,209.97609112493228,209.97609112493228,209.97609112493228,0.0007408750243484974,212.6267964579165,098765432,0.03222222222222222,-0.42,1,0,0,cont_button,212.62742604198866,212.64264312491287,213.62776754191145,,213.6433619169984,,,,,,,,,,,,,,,,,,,,,,,,,,,,999,2025-07-16_14h21.50.107,CGTriskyDMtask,2024.1.3,None,2025-07-16 14h22.06.625067 -0600,
,,,11,,,,,,,,,0,10,10,10,0,0,0,0,,,,,,,,,213.6433619169984,,,,,,,,,,,,,,,,,,,,,,,,,,,,,,,,,,,,,,,,,,,,,,,,,,,,,,,,,,,,,,,213.62819687498268,213.62868270790204,213.6296586249955,213.6433619169984,214.6430151249515,214.6430151249515,215.62755516695324,"[9, 5, 7, 1, 6, 4]",,,,,,,,,,,,,,,,,215.64359954197425,,,,,,,,,,,,,,,,,,,,,,,,,,,,,999,2025-07-16_14h21.50.107,CGTriskyDMtask,2024.1.3,None,2025-07-16 14h22.06.625067 -0600,
,,,11,,,,,,,,,0,10,10,10,1,0,1,0,,,,,,,,,215.64359954197425,,,,,,,,,,,,,,,,,,,,,,,,,,,,,,,,,,,,,,,,,,,,,,,,,,,,,,,,,,,,,,,,,215.6280494579114,215.64359954197425,216.64306649996433,216.64306649996433,217.62809129199013,"[9, 5, 7, 1, 6, 4]",,,,,,,,,,,,,,,,,217.6430569170043,,,,,,,,,,,,,,,,,,,,,,,,,,,,,999,2025-07-16_14h21.50.107,CGTriskyDMtask,2024.1.3,None,2025-07-16 14h22.06.625067 -0600,
,,,11,,,,,,,,,0,10,10,10,2,0,2,0,,,,,,,,,217.6430569170043,,,,,,,,,,,,,,,,,,,,,,,,,,,,,,,,,,,,,,,,,,,,,,,,,,,,,,,,,,,,,,,,,217.62859904195648,217.6430569170043,218.64306404197123,218.64306404197123,219.62757874990348,"[9, 5, 7, 1, 6, 4]",,,,,,,,,,,,,,,,,219.64370566699654,,,,,,,,,,,,,,,,,,,,,,,,,,,,,999,2025-07-16_14h21.50.107,CGTriskyDMtask,2024.1.3,None,2025-07-16 14h22.06.625067 -0600,
,,,11,,,,,,,,,0,10,10,10,3,0,3,0,,,,,,,,,219.64370566699654,,,,,,,,,,,,,,,,,,,,,,,,,,,,,,,,,,,,,,,,,,,,,,,,,,,,,,,,,,,,,,,,,219.62807912495919,219.64370566699654,220.64299345796462,220.64299345796462,221.62812429200858,"[9, 5, 7, 1, 6, 4]",,,,,,,,,,,,,,,,,221.64315479190554,,,,,,,,,,,,,,,,,,,,,,,,,,,,,999,2025-07-16_14h21.50.107,CGTriskyDMtask,2024.1.3,None,2025-07-16 14h22.06.625067 -0600,
,,,11,,,,,,,,,0,10,10,10,4,0,4,0,,,,,,,,,221.64315479190554,,,,,,,,,,,,,,,,,,,,,,,,,,,,,,,,,,,,,,,,,,,,,,,,,,,,,,,,,,,,,,,,,221.6286365420092,221.64315479190554,222.64370579191018,222.64370579191018,223.6275942499051,"[9, 5, 7, 1, 6, 4]",,,,,,,,,,,,,,,,,223.64411983289756,,,,,,,,,,,,,,,,,,,,,,,,,,,,,999,2025-07-16_14h21.50.107,CGTriskyDMtask,2024.1.3,None,2025-07-16 14h22.06.625067 -0600,
,,,11,,,,,,,,,0,10,10,10,5,0,5,0,,,,,,,,,223.64411983289756,,,,,,,,,,,,,,,,,,,,,,,,,,,,,,,,,,,,,,,,,,,,,,,,,,,,,,,,,,,,,,,,,223.62802487495355,223.64411983289756,224.6432986248983,224.6432986248983,225.6278762499569,"[9, 5, 7, 1, 6, 4]",,,,,,,,,,,,,,,,,225.64324312494136,,,,,,,,,,,,,,,,,,,,,,,,,,,,,999,2025-07-16_14h21.50.107,CGTriskyDMtask,2024.1.3,None,2025-07-16 14h22.06.625067 -0600,
,,,11,,,,,,,,,0,10,10,10,,,,,,,,,,,,,,,,,,,,,,,,,,,,,,,,,,,,,,,,,,,,,,,,,,,,,,,,,,0,,,,,,,,,,,,,,,,,,,,,,,,,,225.62800629192498,225.64324312494136,225.64324312494136,225.64324312494136,-5.716702435165644e-05,229.25926245795563,098765432,0.056666666666666664,-0.4288888888888889,1,0,0,cont_button,229.25991070794407,229.27479145792313,230.26118537492584,,,,,,,,,,,,,,,,,,,,,,,,,,,,,,999,2025-07-16_14h21.50.107,CGTriskyDMtask,2024.1.3,None,2025-07-16 14h22.06.625067 -0600,
,,,12,,,,,,,,,0,11,11,11,0,0,0,0,,,,,,,,,230.27449020789936,,,,,,,,,,,,,,,,,,,,,,,,,,,,,,,,,,,,,,,,,,,,,,,,,,,,,,,,,,,,,,,230.2615554999793,230.26203974999953,230.26284824998584,230.27449020789936,231.2747714999132,231.2747714999132,232.26168958295602,"[1, 9, 4, 2, 8]",,,,,,,,,,,,,,,,,232.27476966695394,,,,,,,,,,,,,,,,,,,,,,,,,,,,,999,2025-07-16_14h21.50.107,CGTriskyDMtask,2024.1.3,None,2025-07-16 14h22.06.625067 -0600,
,,,12,,,,,,,,,0,11,11,11,1,0,1,0,,,,,,,,,232.27476966695394,,,,,,,,,,,,,,,,,,,,,,,,,,,,,,,,,,,,,,,,,,,,,,,,,,,,,,,,,,,,,,,,,232.26211583300028,232.27476966695394,233.2749599579256,233.2749599579256,234.26121124997735,"[1, 9, 4, 2, 8]",,,,,,,,,,,,,,,,,234.27501537499484,,,,,,,,,,,,,,,,,,,,,,,,,,,,,999,2025-07-16_14h21.50.107,CGTriskyDMtask,2024.1.3,None,2025-07-16 14h22.06.625067 -0600,
,,,12,,,,,,,,,0,11,11,11,2,0,2,0,,,,,,,,,234.27501537499484,,,,,,,,,,,,,,,,,,,,,,,,,,,,,,,,,,,,,,,,,,,,,,,,,,,,,,,,,,,,,,,,,234.26162245799787,234.27501537499484,235.27501516696066,235.27501516696066,236.26180104189552,"[1, 9, 4, 2, 8]",,,,,,,,,,,,,,,,,236.2749594579218,,,,,,,,,,,,,,,,,,,,,,,,,,,,,999,2025-07-16_14h21.50.107,CGTriskyDMtask,2024.1.3,None,2025-07-16 14h22.06.625067 -0600,
,,,12,,,,,,,,,0,11,11,11,3,0,3,0,,,,,,,,,236.2749594579218,,,,,,,,,,,,,,,,,,,,,,,,,,,,,,,,,,,,,,,,,,,,,,,,,,,,,,,,,,,,,,,,,236.26229508291,236.2749594579218,237.27503166696988,237.27503166696988,238.26159616699442,"[1, 9, 4, 2, 8]",,,,,,,,,,,,,,,,,238.27517920790706,,,,,,,,,,,,,,,,,,,,,,,,,,,,,999,2025-07-16_14h21.50.107,CGTriskyDMtask,2024.1.3,None,2025-07-16 14h22.06.625067 -0600,
,,,12,,,,,,,,,0,11,11,11,4,0,4,0,,,,,,,,,238.27517920790706,,,,,,,,,,,,,,,,,,,,,,,,,,,,,,,,,,,,,,,,,,,,,,,,,,,,,,,,,,,,,,,,,238.2620094169397,238.27517920790706,239.2610063329339,239.2751780829858,240.24497095798142,"[1, 9, 4, 2, 8]",,,,,,,,,,,,,,,,,240.2602176249493,,,,,,,,,,,,,,,,,,,,,,,,,,,,,999,2025-07-16_14h21.50.107,CGTriskyDMtask,2024.1.3,None,2025-07-16 14h22.06.625067 -0600,
,,,12,,,,,,,,,0,11,11,11,,,,,,,,,,,,,,,,,,,,,,,,,,,,,,,,,,,,,,,,,,,,,,,,,,,,,,,,,,0,,,,,,,,,,,,,,,,,,,,,,,,,,240.2450964169111,240.2602176249493,240.2602176249493,240.2602176249493,0.013275541947223246,251.54328779189382,0987654321,0.056666666666666664,-0.4288888888888889,1,0,0,cont_button,251.5440115419915,251.5612416669028,252.5622874579858,,,,,,,,,,,,,,,,,,,,,,,,,,,,,,999,2025-07-16_14h21.50.107,CGTriskyDMtask,2024.1.3,None,2025-07-16 14h22.06.625067 -0600,
,,,13,,,,,,,,,0,12,12,12,0,0,0,0,,,,,,,,,252.5781637079781,,,,,,,,,,,,,,,,,,,,,,,,,,,,,,,,,,,,,,,,,,,,,,,,,,,,,,,,,,,,,,,252.56266970792785,252.56315654190257,252.5639950420009,252.5781637079781,253.57865374989342,253.57865374989342,254.56260587496217,"[2, 4, 6, 8, 5]",,,,,,,,,,,,,,,,,254.57879154197872,,,,,,,,,,,,,,,,,,,,,,,,,,,,,999,2025-07-16_14h21.50.107,CGTriskyDMtask,2024.1.3,None,2025-07-16 14h22.06.625067 -0600,
,,,13,,,,,,,,,0,12,12,12,1,0,1,0,,,,,,,,,254.57879154197872,,,,,,,,,,,,,,,,,,,,,,,,,,,,,,,,,,,,,,,,,,,,,,,,,,,,,,,,,,,,,,,,,254.5630247920053,254.57879154197872,255.57791987492237,255.57791987492237,256.56238162494265,"[2, 4, 6, 8, 5]",,,,,,,,,,,,,,,,,256.5779234999791,,,,,,,,,,,,,,,,,,,,,,,,,,,,,999,2025-07-16_14h21.50.107,CGTriskyDMtask,2024.1.3,None,2025-07-16 14h22.06.625067 -0600,
,,,13,,,,,,,,,0,12,12,12,2,0,2,0,,,,,,,,,256.5779234999791,,,,,,,,,,,,,,,,,,,,,,,,,,,,,,,,,,,,,,,,,,,,,,,,,,,,,,,,,,,,,,,,,256.56281145790126,256.5779234999791,257.5773129579611,257.5773129579611,258.5629520829534,"[2, 4, 6, 8, 5]",,,,,,,,,,,,,,,,,258.5786513329949,,,,,,,,,,,,,,,,,,,,,,,,,,,,,999,2025-07-16_14h21.50.107,CGTriskyDMtask,2024.1.3,None,2025-07-16 14h22.06.625067 -0600,
,,,13,,,,,,,,,0,12,12,12,3,0,3,0,,,,,,,,,258.5786513329949,,,,,,,,,,,,,,,,,,,,,,,,,,,,,,,,,,,,,,,,,,,,,,,,,,,,,,,,,,,,,,,,,258.56345787493046,258.5786513329949,259.5778093748959,259.5778093748959,260.56339837494306,"[2, 4, 6, 8, 5]",,,,,,,,,,,,,,,,,260.5790391669143,,,,,,,,,,,,,,,,,,,,,,,,,,,,,999,2025-07-16_14h21.50.107,CGTriskyDMtask,2024.1.3,None,2025-07-16 14h22.06.625067 -0600,
,,,13,,,,,,,,,0,12,12,12,4,0,4,0,,,,,,,,,260.5790391669143,,,,,,,,,,,,,,,,,,,,,,,,,,,,,,,,,,,,,,,,,,,,,,,,,,,,,,,,,,,,,,,,,260.5638242919231,260.5790391669143,261.57858683296945,261.57858683296945,262.56306095793843,"[2, 4, 6, 8, 5]",,,,,,,,,,,,,,,,,262.57868766691536,,,,,,,,,,,,,,,,,,,,,,,,,,,,,999,2025-07-16_14h21.50.107,CGTriskyDMtask,2024.1.3,None,2025-07-16 14h22.06.625067 -0600,
,,,13,,,,,,,,,0,12,12,12,,,,,,,,,,,,,,,,,,,,,,,,,,,,,,,,,,,,,,,,,,,,,,,,,,,,,,,,,,0,,,,,,,,,,,,,,,,,,,,,,,,,,262.5632062499644,262.57868766691536,262.57868766691536,262.57868766691536,0.0007750409422442317,266.6976372919744,0987654321,0.056666666666666664,-0.4288888888888889,1,0,0,cont_button,266.6983116249321,266.71260441699997,267.69614795793314,,267.7115196249215,,,,,,,,,,,,,,,,,,,,,,,,,,,,999,2025-07-16_14h21.50.107,CGTriskyDMtask,2024.1.3,None,2025-07-16 14h22.06.625067 -0600,
,,,14,,,,,,,,,0,13,13,13,0,0,0,0,,,,,,,,,267.7115196249215,,,,,,,,,,,,,,,,,,,,,,,,,,,,,,,,,,,,,,,,,,,,,,,,,,,,,,,,,,,,,,,267.6965222499566,267.6969405829441,267.6976954579586,267.7115196249215,268.7124804169871,268.7124804169871,269.69642312498763,"[5, 6, 1, 3]",,,,,,,,,,,,,,,,,269.7127585829003,,,,,,,,,,,,,,,,,,,,,,,,,,,,,999,2025-07-16_14h21.50.107,CGTriskyDMtask,2024.1.3,None,2025-07-16 14h22.06.625067 -0600,
,,,14,,,,,,,,,0,13,13,13,1,0,1,0,,,,,,,,,269.7127585829003,,,,,,,,,,,,,,,,,,,,,,,,,,,,,,,,,,,,,,,,,,,,,,,,,,,,,,,,,,,,,,,,,269.69683312496636,269.7127585829003,270.7129282919923,270.7129282919923,271.6963449999457,"[5, 6, 1, 3]",,,,,,,,,,,,,,,,,271.7129917499842,,,,,,,,,,,,,,,,,,,,,,,,,,,,,999,2025-07-16_14h21.50.107,CGTriskyDMtask,2024.1.3,None,2025-07-16 14h22.06.625067 -0600,
,,,14,,,,,,,,,0,13,13,13,2,0,2,0,,,,,,,,,271.7129917499842,,,,,,,,,,,,,,,,,,,,,,,,,,,,,,,,,,,,,,,,,,,,,,,,,,,,,,,,,,,,,,,,,271.69691850000527,271.7129917499842,272.712669624947,272.712669624947,273.69631987495814,"[5, 6, 1, 3]",,,,,,,,,,,,,,,,,273.7120985419024,,,,,,,,,,,,,,,,,,,,,,,,,,,,,999,2025-07-16_14h21.50.107,CGTriskyDMtask,2024.1.3,None,2025-07-16 14h22.06.625067 -0600,
,,,14,,,,,,,,,0,13,13,13,3,0,3,0,,,,,,,,,273.7120985419024,,,,,,,,,,,,,,,,,,,,,,,,,,,,,,,,,,,,,,,,,,,,,,,,,,,,,,,,,,,,,,,,,273.69683362497017,273.7120985419024,274.7124632499181,274.7124632499181,275.69733587489463,"[5, 6, 1, 3]",,,,,,,,,,,,,,,,,275.7128795830067,,,,,,,,,,,,,,,,,,,,,,,,,,,,,999,2025-07-16_14h21.50.107,CGTriskyDMtask,2024.1.3,None,2025-07-16 14h22.06.625067 -0600,
,,,14,,,,,,,,,0,13,13,13,,,,,,,,,,,,,,,,,,,,,,,,,,,,,,,,,,,,,,,,,,,,,,,,,,,,,,,,,,0,,,,,,,,,,,,,,,,,,,,,,,,,,275.69750283297617,275.7128795830067,275.7128795830067,275.7128795830067,0.0012968339724466205,280.46092791692354,46345656,0.056666666666666664,-0.41888888888888887,1,0,0,cont_button,280.46157079190016,280.4767301249085,281.46078887500335,,281.47691349999513,,,,,,,,,,,,,,,,,,,,,,,,,,,,999,2025-07-16_14h21.50.107,CGTriskyDMtask,2024.1.3,None,2025-07-16 14h22.06.625067 -0600,
,,,,,,,,,,,,,,,,,,,,,,,,,,,,,,,,,,,,,,,,,,,,,,,,,,,,,,,,,,,,,,,,,,,,,,,,,,,,,,,,,,,,,,,,,,,,,,,,,,,,,,,,,,,,,,,,,,,,,281.4608712919289,281.47691349999513,281.47691349999513,413.5514117499115,return,-877065.9766074991,None,,,,,,,,,,,,,,,,,,,,,999,2025-07-16_14h21.50.107,CGTriskyDMtask,2024.1.3,None,2025-07-16 14h22.06.625067 -0600,
,,,,,,,,,,,,,,,,,,,,,,,,,,,,,,,,,,,,,,,,,,,,,,,,,,,,,,,,,,,,,,,,,,,,,,,,,,,,,,,,,,,,,,,,,,,,,,,,,,,,,,,,,,,,,,,,,,,,,,,,,,,,413.55150179192424,413.5687716669636,413.5687716669636,425.4845194579102,return,-877186.1282562081,None,,,,,,,,,,,,,,999,2025-07-16_14h21.50.107,CGTriskyDMtask,2024.1.3,None,2025-07-16 14h22.06.625067 -0600,
,,,,,,,,,,,,,,,,,,,,,,,,,,,,427.48313645797316,,,,,,,,,,,,,,,,,,,,,,,,,,,,,,,,,,,,,,,,,,,,,,,,,,,,,,,,,,,,,,,,,,,,,,,,,,,,,,,,,,,,,,,,,,,,,,,,,,,,,,,427.47046166693326,427.48313645797316,428.4830933329649,428.4830933329649,429.4999710828997,429.4700162499212,429.4701147079468,429.4999710828997,429.4999710828997,429.4999710828997,0.01547866698820144,431.5679595419206,42,,,,,,,
