,subID,riskyGain,riskyLoss,safe,RT,round_earnings,curr_goal,curr_bonus,loc,response,choice,outcome,iti,itiExtra,cond,stimDispStart,choiceTimeStart,isiStart,outcomeDispStart,itiStart,trial,roundRDM,roundColor,ischecktrial
1,005,21.32,0.0,7.34,1.6120557500398718,21.32,349.85,25,1,"[['v', 1.6120557500398718]]",1,21.32,1.25,2.387944249960128,0,0.015414374996908009,[],1.6348118339665234,2.1409419589908794,3.142071084002964,0,1,1,0
2,005,15.47,0.0,10.27,1.3360020410036668,31.59,349.85,25,2,"[['v', 1.3360020410036668]]",0,10.27,0.75,2.663997958996333,0,6.770031749969348,[],8.111832291993778,8.617526834015734,9.618639416992664,1,1,1,0
3,005,11.62,0.0,6.19,1.2944522500038147,31.59,349.85,25,2,"[['n', 1.2944522500038147]]",1,0.0,1.25,2.7055477499961853,0,13.032201084017288,[],14.33602291700663,14.84062933397945,15.841729249979835,2,1,1,0
4,005,19.28,0.0,8.36,1.5852173749590293,31.59,349.85,25,1,"[['v', 1.5852173749590293]]",1,0.0,0.75,2.4147826250409707,0,19.781937791965902,[],21.373323209001683,21.877953417017125,22.87906737497542,3,1,1,0
5,005,0.0,0.0,10.25,0.8563149999827147,41.84,349.85,25,1,"[['n', 0.8563149999827147]]",0,10.25,0.75,3.1436850000172853,0,26.030507166986354,[],26.890043916995637,27.39687270898139,28.397940708964597,4,1,1,1
6,005,17.73,0.0,3.13,1.4784460419905372,59.57000000000001,349.85,25,1,"[['v', 1.4784460419905372]]",1,17.73,1.25,2.521553958009463,0,32.2829175000079,[],33.769758499984164,34.27598475001287,35.27711579197785,5,1,1,0
7,005,11.84,0.0,6.08,1.4759627919993363,65.65,349.85,25,2,"[['v', 1.4759627919993363]]",0,6.08,0.75,2.5240372080006637,0,39.03107337496476,[],40.51283937500557,41.01927962497575,42.02038512501167,6,1,1,0
8,005,20.03,0.0,1.99,1.5576303330017254,65.65,349.85,25,2,"[['n', 1.5576303330017254]]",1,0.0,0.75,2.4423696669982746,0,45.266992292017676,[],46.830394791963045,47.3350143340067,48.33611924998695,7,1,1,0
9,005,0.0,0.0,3.13,1.02019220800139,68.78,349.85,25,1,"[['n', 1.02019220800139]]",0,3.13,1.25,2.97980779199861,0,51.516721458989196,[],52.54015741701005,53.04698120901594,54.04808812501142,8,1,1,1
10,005,15.09,0.0,10.46,1.3512327499920502,79.24000000000001,349.85,25,2,"[['v', 1.3512327499920502]]",0,10.46,1.25,2.6487672500079498,0,58.26634525001282,[],59.62328995898133,60.12901391700143,61.1301295000012,9,1,1,0
11,005,11.43,0.0,6.29,1.796074417012278,90.67000000000002,349.85,25,1,"[['v', 1.796074417012278]]",1,11.43,1.25,2.203925582987722,0,65.0172630000161,[],66.82375450001564,67.32970583398128,68.33079791697673,10,1,1,0
12,005,14.26,0.0,0.0,1.4917106250068173,90.67000000000002,349.85,25,1,"[['v', 1.4917106250068173]]",1,0.0,0.75,2.5082893749931827,0,71.76727508398471,[],73.26490499998908,73.76951537496643,74.7705854169908,11,1,1,1
13,005,10.95,0.0,6.53,1.6858123330166563,97.20000000000002,349.85,25,2,"[['v', 1.6858123330166563]]",0,6.53,0.75,2.3141876669833437,0,78.01766058400972,[],79.7092068750062,80.21603391697863,81.21713208401343,12,1,1,0
14,005,16.6,0.0,9.7,1.6477553329896182,97.20000000000002,349.85,25,2,"[['n', 1.6477553329896182]]",1,0.0,1.25,2.352244667010382,0,84.26785120897694,[],85.92135316698113,86.4259077499737,87.42700324999169,13,1,1,0
15,005,19.86,0.0,0.0,0.98840883403318,97.20000000000002,349.85,25,2,"[['n', 0.98840883403318]]",1,0.0,1.25,3.01159116596682,0,91.01576054200996,[],92.00739624997368,92.51303295901744,93.51411558396649,14,1,1,1
16,005,28.21,0.0,3.89,1.3903432919760235,97.20000000000002,349.85,25,1,"[['v', 1.3903432919760235]]",1,0.0,1.25,2.6096567080239765,0,97.76546525000595,[],99.16177641699323,99.66627004201291,100.66740974999266,15,1,1,0
17,005,15.7,0.0,10.15,1.1199579579988495,107.35000000000002,349.85,25,1,"[['n', 1.1199579579988495]]",0,10.15,0.75,2.8800420420011505,0,104.51782558398554,[],105.64328866696451,106.14910770900315,107.15021629200783,16,1,1,0
18,005,10.55,0.0,6.73,1.6209039579844102,114.08000000000003,349.85,25,2,"[['v', 1.6209039579844102]]",0,6.73,1.25,2.3790960420155898,0,110.76708374998998,[],112.39408945897594,112.90076462499565,113.90186604199698,17,1,1,0
19,005,17.59,0.0,9.2,1.521910791983828,131.67000000000002,349.85,25,1,"[['v', 1.521910791983828]]",1,17.59,0.75,2.478089208016172,0,117.51819962501759,[],119.04591745900689,119.55187354196096,120.55298008397222,18,1,1,0
20,005,16.11,6.99,6.99,2.1802293750224635,138.66000000000003,349.85,25,2,"[['n', 2.1802293750224635]]",1,6.99,1.25,1.8197706249775365,0,123.77192358399043,125.78131320897955,125.95542308397125,126.4613415839849,127.46251783397747,19,1,1,1
21,005,18.33,0.0,8.84,1.8688234589644708,138.66000000000003,349.85,25,2,"[['n', 1.8688234589644708]]",1,0.0,1.25,2.1311765410355292,0,130.5195222920156,[],132.39441120898118,132.9001724589616,133.90134024998406,20,1,1,0
22,005,11.2,0.0,6.4,1.286693457979709,145.06000000000003,349.85,25,1,"[['n', 1.286693457979709]]",0,6.4,1.25,2.713306542020291,0,137.27071825001622,[],138.56309666699963,139.06894083396764,140.07003574998816,21,1,1,0
23,005,10.39,0.0,6.81,1.5017147500184365,151.87000000000003,349.85,25,2,"[['v', 1.5017147500184365]]",0,6.81,1.25,2.4982852499815635,0,144.01981158397393,[],145.52736449998338,146.03322545898845,147.03438170900336,22,1,1,0
24,005,6.79,0.0,9.92,1.2634165000054054,161.79000000000002,349.85,25,2,"[['v', 1.2634165000054054]]",0,9.92,0.75,2.7365834999945946,0,150.76819633401465,[],152.03770416701445,152.54347108397633,153.54462087497814,23,1,1,1
25,005,0.0,0.0,7.55,1.1140138750197366,169.34000000000003,349.85,25,1,"[['n', 1.1140138750197366]]",0,7.55,0.75,2.8859861249802634,0,157.0197433750145,[],158.14277987496462,158.64852895896183,159.64960066700587,24,1,1,1
26,005,17.94,0.0,9.03,1.8122760830447078,169.34000000000003,349.85,25,2,"[['n', 1.8122760830447078]]",1,0.0,1.25,2.1877239169552922,0,163.26971829199465,[],165.08780199999455,165.5924152089865,166.59350070898654,25,1,1,0
27,005,17.28,0.0,9.36,1.7651568750152364,186.62000000000003,349.85,25,1,"[['v', 1.7651568750152364]]",1,17.28,1.25,2.2348431249847636,0,170.0207358750049,[],171.7916925419704,172.2991724999738,173.30029666697374,26,1,1,0
28,005,14.72,0.0,4.64,1.7990557909943163,201.34000000000003,349.85,25,1,"[['v', 1.7990557909943163]]",1,14.72,1.25,2.2009442090056837,0,176.7688925419934,[],178.5755476669874,179.08144429198,180.08255595900118,27,1,1,0
29,005,13.04,0.0,5.48,1.7445897500147112,201.34000000000003,349.85,25,2,"[['n', 1.7445897500147112]]",1,0.0,1.25,2.255410249985289,0,183.52154329197947,[],185.27213749999646,185.77678449999075,186.77785587497056,28,1,1,0
30,005,12.08,0.0,5.96,1.466590583033394,207.30000000000004,349.85,25,1,"[['n', 1.466590583033394]]",0,5.96,0.75,2.533409416966606,0,190.27157062501647,[],191.74423766700784,192.25049491698155,193.25167387496913,29,1,1,0
31,005,15.27,0.0,10.37,1.4431014999863692,217.67000000000004,349.85,25,1,"[['n', 1.4431014999863692]]",0,10.37,1.25,2.556898500013631,0,196.52037687500706,[],197.9696460000123,198.47544595896034,199.47656674997415,30,1,1,0
32,005,15.96,0.0,10.02,1.9538485840312205,217.67000000000004,349.85,25,1,"[['v', 1.9538485840312205]]",1,0.0,0.75,2.0461514159687795,0,203.2706545839901,[],205.2303149169893,205.73607237497345,206.73718608397758,31,1,1,0
33,005,22.97,0.0,6.51,1.9743587499833666,217.67000000000004,349.85,25,1,"[['v', 1.9743587499833666]]",1,0.0,1.25,2.0256412500166334,0,209.52254658396123,[],211.50294166698586,212.0085361250094,213.00959933397826,32,1,1,0
34,005,10.12,0.0,6.94,1.6136382920085452,224.61000000000004,349.85,25,1,"[['n', 1.6136382920085452]]",0,6.94,0.75,2.3863617079914548,0,216.27073929196922,[],217.89020133396843,218.39595645898953,219.39703020901652,33,1,1,0
35,005,25.2,0.0,5.4,1.5014027919969521,249.81000000000003,349.85,25,2,"[['n', 1.5014027919969521]]",1,25.2,0.75,2.498597208003048,0,222.52139129198622,[],224.02866004197858,224.53465862496523,225.53575204196386,34,1,1,0
36,005,12.68,0.0,5.66,1.8438235419453122,249.81000000000003,349.85,25,1,"[['v', 1.8438235419453122]]",1,0.0,1.25,2.156176458054688,0,228.7740276249824,[],230.62384870898677,231.12852954200935,232.12963745900197,35,1,1,0
37,005,19.86,0.0,8.07,2.078861666028388,257.88000000000005,349.85,25,2,"[['v', 2.078861666028388]]",0,8.07,1.25,1.9211383339716122,0,235.52185762498993,237.5313348339987,237.60398004198214,238.10976283397758,239.11087487498298,36,1,1,0
38,005,10.24,0.0,6.88,1.2478517499985173,264.76000000000005,349.85,25,1,"[['n', 1.2478517499985173]]",0,6.88,0.75,2.7521482500014827,0,242.2741782090161,[],243.52789033396402,244.03373962501064,245.0348343339865,37,1,1,0
39,005,13.45,0.0,5.27,1.3497064160183072,278.21000000000004,349.85,25,1,"[['v', 1.3497064160183072]]",1,13.45,0.75,2.650293583981693,0,248.5253934590146,[],249.8808480000007,250.38679470896022,251.38793995900778,38,1,1,0
40,005,13.1,7.73,4.68,1.7236993330297992,285.94000000000005,349.85,25,1,"[['v', 1.7236993330297992]]",1,7.73,1.25,2.276300666970201,0,254.77744233398698,[],256.50697845901595,257.0140868339804,258.0152467919979,39,1,1,1
41,005,13.94,0.0,5.03,1.4867848749854602,285.94000000000005,349.85,25,1,"[['v', 1.4867848749854602]]",1,0.0,0.75,2.51321512501454,0,261.52638854196994,[],263.0192142089945,263.52388691698434,264.5249676249805,40,1,1,0
42,005,18.77,0.0,8.61,1.6160174999968149,304.71000000000004,349.85,25,2,"[['n', 1.6160174999968149]]",1,18.77,0.75,2.383982500003185,0,267.7654603339615,[],269.38785579201067,269.89429458399536,270.8954625420156,41,1,1,0
43,005,10.73,0.0,6.63,1.5335312499664724,311.34000000000003,349.85,25,2,"[['v', 1.5335312499664724]]",0,6.63,0.75,2.4664687500335276,0,274.02343416697113,[],275.5628741669934,276.06862666696543,277.0697045419947,42,1,1,0
44,005,10.68,0.0,10.68,1.1080059580272064,322.02000000000004,349.85,25,2,"[['v', 1.1080059580272064]]",0,10.68,1.25,2.8919940419727936,0,280.274518124992,[],281.38567233399954,281.8913643750129,282.8925220000092,43,1,1,1
45,005,20.53,0.0,7.73,1.475500624976121,342.55000000000007,349.85,25,1,"[['v', 1.475500624976121]]",1,20.53,0.75,2.524499375023879,0,287.02410358400084,[],288.50545583397616,289.0114565420081,290.01254645898007,44,1,1,0
46,005,16.0,0.0,4.0,1.2714556249557063,346.55000000000007,349.85,25,1,"[['n', 1.2714556249557063]]",0,4.0,0.75,2.7285443750442937,0,293.2751284589758,[],294.55224404198816,295.05806008400396,296.0591765840072,45,1,1,0
47,005,16.26,0.0,9.87,1.1211375829880126,356.4200000000001,349.85,25,2,"[['v', 1.1211375829880126]]",0,9.87,0.75,2.8788624170119874,0,299.5263506670017,[],300.65294816700043,301.15881533396896,302.15995754196774,46,1,1,0
48,005,10.35,0.0,0.0,1.0802349169971421,356.4200000000001,349.85,25,1,"[['v', 1.0802349169971421]]",1,0.0,0.75,2.919765083002858,0,305.77553174999775,[],306.8590049169725,307.3635448749992,308.36468670901377,47,1,1,1
49,005,12.36,0.0,5.82,1.2990160830086097,368.7800000000001,349.85,25,1,"[['v', 1.2990160830086097]]",1,12.36,0.75,2.7009839169913903,0,312.02491216699127,[],313.33143154199934,313.83739345899085,314.83851733396295,48,1,1,0
50,005,17.0,0.0,9.5,1.2159985830076039,385.7800000000001,349.85,25,2,"[['n', 1.2159985830076039]]",1,17.0,1.25,2.784001416992396,0,318.2776309999754,[],319.49903508397983,320.0049974169815,321.0061027499614,49,1,1,0
51,005,15.47,0.0,10.27,1.6418690420105122,10.27,420.79,100,1,"[['n', 1.6418690420105122]]",0,10.27,1.25,2.358130957989488,3,0.014957374951336533,[],1.6627980409539305,2.169085457979236,3.170206832990516,0,2,0,0
52,005,17.59,0.0,9.2,1.344555167015642,27.86,420.79,100,2,"[['n', 1.344555167015642]]",1,17.59,0.75,2.655444832984358,3,6.776486332993954,[],8.126924749987666,8.63347924995469,9.634551832976285,1,2,0,0
53,005,14.72,0.0,4.64,1.670639999967534,42.58,420.79,100,2,"[['n', 1.670639999967534]]",1,14.72,0.75,2.329360000032466,3,13.020622749987524,[],14.697156749956775,15.204524082946591,16.205590415978804,2,2,0,0
54,005,10.95,0.0,6.53,1.4021592079661787,49.11,420.79,100,2,"[['v', 1.4021592079661787]]",0,6.53,1.25,2.5978407920338213,3,19.26898541598348,[],20.67685516597703,21.18254424998304,22.18369679094758,3,2,0,0
55,005,10.55,0.0,6.73,1.4862283340189606,55.84,420.79,100,2,"[['v', 1.4862283340189606]]",0,6.73,0.75,2.5137716659810394,3,26.02015441597905,[],27.512250040948857,28.017917207966093,29.019058457983192,4,2,0,0
56,005,16.0,0.0,4.0,1.5516417500330135,71.84,420.79,100,2,"[['n', 1.5516417500330135]]",1,16.0,1.25,2.4483582499669865,3,32.27062899997691,[],33.82808141596615,34.33397774997866,35.335076582967304,5,2,0,0
57,005,17.73,0.0,3.13,1.5825701670255512,71.84,420.79,100,1,"[['v', 1.5825701670255512]]",1,0.0,1.25,2.417429832974449,3,39.01997033297084,[],40.60833579098107,41.11300891597057,42.114108540990856,6,2,0,0
58,005,16.6,0.0,9.7,1.6382567499531433,81.54,420.79,100,1,"[['n', 1.6382567499531433]]",0,9.7,1.25,2.3617432500468567,3,45.76926970796194,[],47.41348679095972,47.91917999996804,48.920271582959685,7,2,0,0
59,005,11.2,0.0,6.4,1.7323979579959996,81.54,420.79,100,1,"[['v', 1.7323979579959996]]",1,0.0,0.75,2.2676020420040004,3,52.519987874955405,[],54.25843679095851,54.76455616595922,55.76567349996185,8,2,0,0
60,005,25.2,0.0,5.4,1.4457367500290275,81.54,420.79,100,1,"[['v', 1.4457367500290275]]",1,0.0,1.25,2.5542632499709725,3,58.77087374997791,[],60.225464040995575,60.73014904098818,61.73128149996046,9,2,0,0
61,005,13.94,0.0,5.03,1.5148106660344638,81.54,420.79,100,2,"[['n', 1.5148106660344638]]",1,0.0,1.25,2.485189333965536,3,65.51950187498005,[],67.0423990409472,67.54703545797383,68.54814912495203,10,2,0,0
62,005,18.77,0.0,8.61,1.5427810829714872,90.15,420.79,100,2,"[['v', 1.5427810829714872]]",0,8.61,0.75,2.457218917028513,3,72.27407337498153,[],73.82319804094732,74.32885458297096,75.32995895796921,11,2,0,0
63,005,10.39,0.0,6.81,1.5207494579954073,96.96000000000001,420.79,100,2,"[['v', 1.5207494579954073]]",0,6.81,0.75,2.4792505420045927,3,78.52029708295595,[],80.046823749959,80.55247979098931,81.55365720798727,12,2,0,0
64,005,11.84,0.0,6.08,1.9371455000364222,108.80000000000001,420.79,100,1,"[['v', 1.9371455000364222]]",1,11.84,1.25,2.062854499963578,3,84.77200883295154,[],86.7150270830025,87.22226970799966,88.22338462498737,13,2,0,0
65,005,10.12,0.0,6.94,1.6787720420397818,108.80000000000001,420.79,100,1,"[['v', 1.6787720420397818]]",1,0.0,1.25,2.321227957960218,3,91.52342416596366,[],93.2105271659675,93.71514795796247,94.71630949998507,14,2,0,0
66,005,12.68,0.0,5.66,1.7578625829773955,108.80000000000001,420.79,100,1,"[['v', 1.7578625829773955]]",1,0.0,0.75,2.2421374170226045,3,98.27127245796146,[],100.03497445798712,100.53961783298291,101.54070687497733,15,2,0,0
67,005,20.53,0.0,7.73,2.5396883339853957,129.33,420.79,100,1,"[['v', 2.5396883339853957]]",1,20.53,0.75,1.4603116660146043,3,104.52119233296253,106.5330353329773,107.06546124996385,107.5720508749946,108.57317287498154,16,2,0,0
68,005,16.26,0.0,9.87,1.606499542016536,139.20000000000002,420.79,100,2,"[['v', 1.606499542016536]]",0,9.87,1.25,2.393500457983464,3,110.76680724998005,[],112.37910995795391,112.88595404097578,113.88702841597842,17,2,0,0
69,005,15.27,0.0,10.37,1.2494420409784652,149.57000000000002,420.79,100,2,"[['v', 1.2494420409784652]]",0,10.37,1.25,2.7505579590215348,3,117.51699141599238,[],118.77211237495067,119.27789016597671,120.27901637495961,18,2,0,0
70,005,19.86,0.0,0.0,1.049958375049755,149.57000000000002,420.79,100,2,"[['n', 1.049958375049755]]",1,0.0,1.25,2.950041624950245,3,124.26767333300086,[],125.321328290971,125.8258502499666,126.82701399998041,19,2,0,1
71,005,13.1,7.73,4.68,1.5895780409919098,157.3,420.79,100,2,"[['n', 1.5895780409919098]]",1,7.73,1.25,2.41042195900809,3,131.02052774996264,[],132.61597887496464,133.12206404097378,134.12315337499604,20,2,0,1
72,005,14.26,0.0,0.0,1.463841582997702,157.3,420.79,100,1,"[['v', 1.463841582997702]]",1,0.0,0.75,2.536158417002298,3,137.77004245796707,[],139.2396847079508,139.74433616595343,140.74541195796337,21,2,0,1
73,005,12.36,0.0,5.82,1.8996842500055209,169.66000000000003,420.79,100,1,"[['v', 1.8996842500055209]]",1,12.36,0.75,2.100315749994479,3,144.01810754096368,[],145.92393062496558,146.43096037500072,147.43214133294532,22,2,0,0
74,005,11.62,0.0,6.19,1.7320208749733865,181.28000000000003,420.79,100,2,"[['n', 1.7320208749733865]]",1,11.62,0.75,2.2679791250266135,3,150.26873495796463,[],152.00660304096527,152.51386308297515,153.51495137496386,23,2,0,0
75,005,22.97,0.0,6.51,1.6784686250030063,204.25000000000003,420.79,100,1,"[['v', 1.6784686250030063]]",1,22.97,0.75,2.3215313749969937,3,156.52153437497327,[],158.2059006249765,158.71308929094812,159.71420124999713,24,2,0,0
76,005,10.24,0.0,6.88,1.756636083999183,211.13000000000002,420.79,100,1,"[['n', 1.756636083999183]]",0,6.88,0.75,2.243363916000817,3,162.77146470797015,[],164.53385799995158,165.0411827909993,166.0423175409669,25,2,0,0
77,005,17.0,0.0,9.5,2.225291791022755,211.13000000000002,420.79,100,1,"[['v', 2.225291791022755]]",1,0.0,0.75,1.7747082089772448,3,169.01984566595638,171.02945787494536,171.24963479099097,171.7542160829762,172.7553060829523,26,2,0,0
78,005,21.32,0.0,7.34,1.8729980409843847,232.45000000000002,420.79,100,2,"[['n', 1.8729980409843847]]",1,21.32,1.25,2.1270019590156153,3,175.2706809999654,[],177.14948120794725,177.6565492079826,178.65776141599054,27,2,0,0
79,005,0.0,0.0,3.13,1.271005459013395,235.58,420.79,100,2,"[['v', 1.271005459013395]]",0,3.13,0.75,2.728994540986605,3,182.0203462499776,[],183.29703470796812,183.8027912909747,184.80387674999656,28,2,0,1
80,005,15.96,0.0,10.02,1.6135592500213534,245.60000000000002,420.79,100,1,"[['n', 1.6135592500213534]]",0,10.02,0.75,2.3864407499786466,3,188.27151862496976,[],189.8913773749955,190.39726645796327,191.39835116598988,29,2,0,0
81,005,11.43,0.0,6.29,2.042577583983075,257.03000000000003,420.79,100,1,"[['v', 2.042577583983075]]",1,11.43,0.75,1.9574224160169251,3,194.50918174994877,196.53464641596656,196.55504612496588,197.06097362498986,198.062081165961,30,2,0,0
82,005,17.94,0.0,9.03,1.272621457988862,274.97,420.79,100,2,"[['n', 1.272621457988862]]",1,17.94,1.25,2.727378542011138,3,200.7596698749694,[],202.03811487497296,202.5441329999594,203.54522579099284,31,2,0,0
83,005,19.28,0.0,8.36,2.2068159580230713,274.97,420.79,100,1,"[['v', 2.2068159580230713]]",1,0.0,1.25,1.7931840419769287,3,207.5107992499834,209.5356121249497,209.72211641597096,210.22673599998234,211.22782629099675,32,2,0,0
84,005,28.21,0.0,3.89,1.5705740409903228,274.97,420.79,100,1,"[['v', 1.5705740409903228]]",1,0.0,0.75,2.429425959009677,3,214.2600227909861,[],215.83635233296081,216.3414733329555,217.3426412079716,33,2,0,0
85,005,16.11,6.99,6.99,1.6181608749902807,291.08000000000004,420.79,100,1,"[['v', 1.6181608749902807]]",1,16.11,1.25,2.3818391250097193,3,220.51270316599403,[],222.13670795795042,222.6427459999686,223.6439059159602,34,2,0,1
86,005,13.45,0.0,5.27,1.8728063330054283,304.53000000000003,420.79,100,2,"[['n', 1.8728063330054283]]",1,13.45,0.75,2.1271936669945717,3,227.26201120798942,[],229.140763415955,229.6478953329497,230.64899704098934,35,2,0,0
87,005,18.33,0.0,8.84,2.073262708960101,304.53000000000003,420.79,100,1,"[['v', 2.073262708960101]]",1,0.0,1.25,1.926737291039899,3,233.51163745799568,235.53617449995363,235.5881133749499,236.09262083296198,237.0937655409798,36,2,0,0
88,005,15.09,0.0,10.46,1.2099062920315191,314.99,420.79,100,2,"[['v', 1.2099062920315191]]",0,10.46,0.75,2.790093707968481,3,240.2611199579551,[],241.47673654096434,241.9827781659551,242.98390183295123,37,2,0,0
89,005,10.73,0.0,6.63,2.4932935829856433,314.99,420.79,100,1,"[['v', 2.4932935829856433]]",1,0.0,1.25,1.5067064170143567,3,246.52431675000116,248.5384964159457,249.02204149996396,249.5265696659917,250.52766820800025,38,2,0,0
90,005,12.08,0.0,5.96,1.9162137910025194,314.99,420.79,100,1,"[['v', 1.9162137910025194]]",1,0.0,1.25,2.0837862089974806,3,253.26179695798783,[],255.18389424995985,255.68956762499874,256.69068274996243,39,2,0,0
91,005,20.03,0.0,1.99,1.600062915997114,335.02,420.79,100,1,"[['v', 1.600062915997114]]",1,20.03,0.75,2.399937084002886,3,260.0230874159606,[],261.62890949996654,262.13596804096596,263.1370866249781,40,2,0,0
92,005,19.86,0.0,8.07,1.8850719169713557,335.02,420.79,100,1,"[['v', 1.8850719169713557]]",1,0.0,0.75,2.1149280830286443,3,266.26222779095406,[],268.1531317499466,268.6588838750031,269.6599882079754,41,2,0,0
93,005,13.04,0.0,5.48,2.010117707948666,335.02,420.79,100,2,"[['n', 2.010117707948666]]",1,0.0,0.75,1.989882292051334,3,272.51246737496695,[],274.52863029099535,275.03428312495816,276.03537579096155,42,2,0,0
94,005,0.0,0.0,7.55,1.0782021670020185,342.57,420.79,100,1,"[['n', 1.0782021670020185]]",0,7.55,1.25,2.9217978329979815,3,278.76428120798664,[],279.8456296660006,280.3514026659541,281.3525451250025,43,2,0,1
95,005,15.7,0.0,10.15,1.277584457944613,352.71999999999997,420.79,100,2,"[['v', 1.277584457944613]]",0,10.15,1.25,2.722415542055387,3,285.51343116594944,[],286.79721179098124,287.3029977499973,288.3041618329589,44,2,0,0
96,005,0.0,0.0,10.25,1.2201952079776675,362.96999999999997,420.79,100,2,"[['v', 1.2201952079776675]]",0,10.25,0.75,2.7798047920223325,3,292.2633523749537,[],293.4893071659608,293.9951590409619,294.99628587497864,45,2,0,1
97,005,17.28,0.0,9.36,1.751932667044457,380.25,420.79,100,2,"[['n', 1.751932667044457]]",1,17.28,0.75,2.248067332955543,3,298.5137482499704,[],300.27147320797667,300.7784816249623,301.77958549995674,46,2,0,0
98,005,10.35,0.0,0.0,1.233346667024307,380.25,420.79,100,1,"[['v', 1.233346667024307]]",1,0.0,1.25,2.766653332975693,3,304.7653237909544,[],306.00433716597036,306.50935724994633,307.5104959579767,47,2,0,1
99,005,10.68,0.0,10.68,1.298920208006166,390.93,420.79,100,2,"[['v', 1.298920208006166]]",0,10.68,1.25,2.701079791993834,3,311.51302095799474,[],312.8196133750025,313.3253946249606,314.32655512494966,48,2,0,1
100,005,6.79,0.0,9.92,1.7485622079693712,400.85,420.79,100,2,"[['v', 1.7485622079693712]]",0,9.92,1.25,2.2514377920306288,3,318.26522854098585,[],320.0196629999555,320.52668650000123,321.52779149997514,49,2,0,1
101,005,20.03,0.0,1.99,1.2691554999910295,20.03,349.85,100,2,"[['n', 1.2691554999910295]]",1,20.03,1.25,2.7308445000089705,2,0.014179292018525302,[],1.289148042036686,1.7953409170149826,2.796439249999821,0,3,3,0
102,005,17.73,0.0,3.13,1.6925990419695154,20.03,349.85,100,2,"[['n', 1.6925990419695154]]",1,0.0,0.75,2.3074009580304846,2,6.770290500018746,[],8.468776374997105,8.974469458044041,9.975576249998994,1,3,3,0
103,005,0.0,0.0,10.25,0.9087933750124648,30.28,349.85,100,1,"[['n', 0.9087933750124648]]",0,10.25,0.75,3.091206624987535,2,13.021164708014112,[],13.933540416997857,14.440325417032,15.441472958016675,2,3,3,1
104,005,19.86,0.0,0.0,1.5654047089628875,50.14,349.85,100,2,"[['n', 1.5654047089628875]]",1,19.86,0.75,2.4345952910371125,2,19.26998108299449,[],20.841142582998145,21.347535958047956,22.348674083012156,3,3,3,1
105,005,10.73,0.0,6.63,1.8432838339940645,56.77,349.85,100,1,"[['n', 1.8432838339940645]]",0,6.63,0.75,2.1567161660059355,2,25.519707125029527,[],27.368944582995027,27.876220042002387,28.877366167027503,4,3,3,0
106,005,10.39,0.0,6.81,1.814745709009003,63.580000000000005,349.85,100,1,"[['n', 1.814745709009003]]",0,6.81,0.75,2.185254290990997,2,31.768483916996047,[],33.5890913750045,34.09629625000525,35.097403458028566,5,3,3,0
107,005,20.53,0.0,7.73,1.8713011250365525,84.11000000000001,349.85,100,2,"[['n', 1.8713011250365525]]",1,20.53,1.25,2.1286988749634475,2,38.018662000016775,[],39.89589129202068,40.40294237504713,41.40402445802465,6,3,3,0
108,005,18.33,0.0,8.84,2.4031514580128714,92.95000000000002,349.85,100,1,"[['n', 2.4031514580128714]]",0,8.84,0.75,1.5968485419871286,2,44.76922975003254,46.77903900004458,47.17687929200474,47.682585250004195,48.68371304200264,7,3,3,0
109,005,15.27,0.0,10.37,2.07043641700875,103.32000000000002,349.85,100,1,"[['n', 2.07043641700875]]",0,10.37,1.25,1.9295635829912499,2,51.0188971250318,53.028621792036574,53.09250945801614,53.59812291699927,54.59937566705048,8,3,3,0
110,005,28.21,0.0,3.89,1.7956067089689896,131.53000000000003,349.85,100,2,"[['n', 1.7956067089689896]]",1,28.21,0.75,2.2043932910310104,2,57.769524458039086,[],59.5709313750267,60.078253208019305,61.079421833041124,9,3,3,0
111,005,15.09,0.0,10.46,1.4846062079886906,141.99000000000004,349.85,100,2,"[['v', 1.4846062079886906]]",0,10.46,1.25,2.5153937920113094,2,64.01998162502423,[],65.51042691699695,66.01639875001274,67.01751191704534,10,3,3,0
112,005,11.2,0.0,6.4,1.36457066697767,153.19000000000003,349.85,100,2,"[['n', 1.36457066697767]]",1,11.2,0.75,2.63542933302233,2,70.769633583026,[],72.14100658299867,72.64734095800668,73.6485359580256,11,3,3,0
113,005,12.08,0.0,5.96,1.8049020830076188,165.27000000000004,349.85,100,1,"[['v', 1.8049020830076188]]",1,12.08,1.25,2.195097916992381,2,77.02184937504353,[],78.8328476670431,79.34013262501685,80.3412725829985,12,3,3,0
114,005,21.32,0.0,7.34,1.5514128750073723,186.59000000000003,349.85,100,2,"[['n', 1.5514128750073723]]",1,21.32,0.75,2.4485871249926277,2,83.77130566700362,[],85.33142808300909,85.83742783300113,86.83851591701386,13,3,3,0
115,005,18.77,0.0,8.61,1.5481542909983546,205.36000000000004,349.85,100,1,"[['v', 1.5481542909983546]]",1,18.77,1.25,2.4518457090016454,2,90.02010995801538,[],91.57419300003676,92.08014150004601,93.08123833301943,14,3,3,0
116,005,12.36,0.0,5.82,2.1392505829571746,211.18000000000004,349.85,100,1,"[['n', 2.1392505829571746]]",0,5.82,0.75,1.8607494170428254,2,96.77496479201363,98.78464416699717,98.91750116704497,99.42315795802278,100.42429600004107,15,3,3,0
117,005,11.84,0.0,6.08,1.9110239170258865,211.18000000000004,349.85,100,1,"[['v', 1.9110239170258865]]",1,0.0,1.25,2.0889760829741135,2,103.02268937503686,[],104.94007741700625,105.44585379201453,106.44697308301693,16,3,3,0
118,005,16.11,6.99,6.99,1.6750134169706143,227.29000000000002,349.85,100,2,"[['n', 1.6750134169706143]]",1,16.11,1.25,2.3249865830293857,2,109.76095858303597,[],111.44168350001564,111.94872187502915,112.94981945800828,17,3,3,1
119,005,17.28,0.0,9.36,1.759863667015452,244.57000000000002,349.85,100,1,"[['v', 1.759863667015452]]",1,17.28,1.25,2.240136332984548,2,116.51141479203943,[],118.27706600003876,118.78419579204638,119.78530795802362,18,3,3,0
120,005,0.0,0.0,3.13,1.2775558329885826,247.70000000000002,349.85,100,1,"[['n', 1.2775558329885826]]",0,3.13,1.25,2.7224441670114174,2,123.26048229204025,[],124.54384458303684,125.05011975002708,126.05122112500248,19,3,3,1
121,005,15.7,0.0,10.15,1.6285724160261452,257.85,349.85,100,2,"[['v', 1.6285724160261452]]",0,10.15,1.25,2.371427583973855,2,130.0247091250494,[],131.65917887503747,132.16616637504194,133.16734366700985,20,3,3,0
122,005,17.94,0.0,9.03,2.0888986670179293,257.85,349.85,100,1,"[['v', 2.0888986670179293]]",1,0.0,0.75,1.9111013329820707,2,136.77440066699637,138.78768308303552,138.8665313750389,139.37116862501716,140.37224983301712,21,3,3,0
123,005,17.0,0.0,9.5,1.9870764579973184,267.35,349.85,100,2,"[['v', 1.9870764579973184]]",0,9.5,0.75,2.0129235420026816,2,143.02430629200535,[],145.01750600000378,145.52461966703413,146.52570183301577,22,3,3,0
124,005,16.6,0.0,9.7,1.8417242909781635,283.95000000000005,349.85,100,2,"[['n', 1.8417242909781635]]",1,16.6,0.75,2.1582757090218365,2,149.27482529199915,[],151.12246758304536,151.62962170800893,152.63071158301318,23,3,3,0
125,005,11.43,0.0,6.29,2.0581295000156388,290.24000000000007,349.85,100,1,"[['n', 2.0581295000156388]]",0,6.29,1.25,1.9418704999843612,2,155.52440416702302,157.53930808301084,157.58575195801677,158.09149279200938,159.09258108300855,24,3,3,0
126,005,10.55,0.0,6.73,2.1284263330162503,290.24000000000007,349.85,100,1,"[['v', 2.1284263330162503]]",1,0.0,0.75,1.8715736669837497,2,162.27524516702397,164.28934891702374,164.40696795802796,164.91193200001726,165.91304833302274,25,3,3,0
127,005,14.72,0.0,4.64,1.764240249991417,304.9600000000001,349.85,100,2,"[['n', 1.764240249991417]]",1,14.72,1.25,2.235759750008583,2,168.52642937505152,[],170.29646879201755,170.80352524999762,171.80461412499426,26,3,3,0
128,005,14.26,0.0,0.0,1.4699275419698097,319.2200000000001,349.85,100,1,"[['v', 1.4699275419698097]]",1,14.26,0.75,2.5300724580301903,2,175.2758791249944,[],176.75160687504103,177.25766120804474,178.25874304200988,27,3,3,1
129,005,10.95,0.0,6.53,2.0630212500109337,319.2200000000001,349.85,100,1,"[['v', 2.0630212500109337]]",1,0.0,1.25,1.9369787499890663,2,181.52585391700268,183.540060542,183.59319254203,184.09776875004172,185.09887966699898,28,3,3,0
130,005,10.35,0.0,0.0,1.4202621660078876,319.2200000000001,349.85,100,1,"[['v', 1.4202621660078876]]",1,0.0,0.75,2.5797378339921124,2,188.2777193330112,[],189.70383058302104,190.20838466699934,191.20947645802516,29,3,3,1
131,005,15.47,0.0,10.27,1.4471255409880541,329.49000000000007,349.85,100,2,"[['v', 1.4471255409880541]]",0,10.27,0.75,2.552874459011946,2,194.51104100001976,[],195.9643351249979,196.47015212499537,197.47128479200182,30,3,3,0
132,005,16.0,0.0,4.0,1.8958162920316681,329.49000000000007,349.85,100,1,"[['v', 1.8958162920316681]]",1,0.0,1.25,2.104183707968332,2,200.76131020800676,[],202.66291800001636,203.16869275004137,204.1697927500354,31,3,3,0
133,005,17.59,0.0,9.2,1.49194916698616,338.69000000000005,349.85,100,1,"[['n', 1.49194916698616]]",0,9.2,1.25,2.50805083301384,2,207.51106270804303,[],209.0088845420396,209.51474845799385,210.51583966700127,32,3,3,0
134,005,10.24,0.0,6.88,1.692383959016297,345.57000000000005,349.85,100,1,"[['n', 1.692383959016297]]",0,6.88,0.75,2.307616040983703,2,214.2609806249966,[],215.9593091669958,216.4661393330316,217.46723841701169,33,3,3,0
135,005,0.0,0.0,7.55,1.294893125013914,353.12000000000006,349.85,100,1,"[['n', 1.294893125013914]]",0,7.55,1.25,2.705106874986086,2,220.51150150003377,[],221.81213883304736,222.3178609170136,223.31897308304906,34,3,3,1
136,005,11.62,0.0,6.19,1.9112030830001459,353.12000000000006,349.85,100,1,"[['v', 1.9112030830001459]]",1,0.0,1.25,2.088796916999854,2,227.2623850000091,[],229.17955000000075,229.6854273750214,230.68654125003377,35,3,3,0
137,005,15.96,0.0,10.02,1.6704729169723578,363.14000000000004,349.85,100,1,"[['n', 1.6704729169723578]]",0,10.02,1.25,2.329527083027642,2,234.01240262499778,[],235.6887858750415,236.1956989580067,237.1967812080402,36,3,3,0
138,005,6.79,0.0,9.92,1.3705491250148043,373.06000000000006,349.85,100,1,"[['n', 1.3705491250148043]]",0,9.92,0.75,2.6294508749851957,2,240.7619392920169,[],242.1381901249988,242.64515937503893,243.64628208300564,37,3,3,1
139,005,16.26,0.0,9.87,2.072632000024896,373.06000000000006,349.85,100,2,"[['n', 2.072632000024896]]",1,0.0,0.75,1.9273679999751039,2,247.01295245799702,249.0251985420473,249.09041458304273,249.5949522080482,250.59606216702377,38,3,3,0
140,005,19.86,0.0,8.07,1.5847888329881243,392.9200000000001,349.85,100,2,"[['n', 1.5847888329881243]]",1,19.86,0.75,2.4152111670118757,2,253.26377087499714,[],254.85435416700784,255.36136550002266,256.36244408303173,39,3,3,0
141,005,10.12,0.0,6.94,1.93073674995685,399.86000000000007,349.85,100,2,"[['v', 1.93073674995685]]",0,6.94,1.25,2.06926325004315,2,259.5130391670391,[],261.4496216670377,261.95664633304114,262.9577280000085,40,3,3,0
142,005,22.97,0.0,6.51,1.7511391249718145,422.83000000000004,349.85,100,1,"[['v', 1.7511391249718145]]",1,22.97,1.25,2.2488608750281855,2,266.2638564170338,[],268.02440787502564,268.5316108750412,269.5327128750505,41,3,3,0
143,005,25.2,0.0,5.4,1.6292416249634698,422.83000000000004,349.85,100,2,"[['n', 1.6292416249634698]]",1,0.0,1.25,2.37075837503653,2,273.01470950001385,[],274.6497301670024,275.15428854204947,276.15549429203384,42,3,3,0
144,005,19.28,0.0,8.36,1.3965247090090998,442.11,349.85,100,2,"[['n', 1.3965247090090998]]",1,19.28,0.75,2.6034752909909002,2,279.7665377079975,[],281.1688983750064,281.6749168750248,282.6760262080352,43,3,3,0
145,005,13.1,7.73,4.68,1.3223709999583662,449.84000000000003,349.85,100,1,"[['v', 1.3223709999583662]]",1,7.73,0.75,2.677629000041634,2,286.01675454201177,[],287.3450523330248,287.85110429202905,288.85218924999936,44,3,3,1
146,005,13.94,0.0,5.03,1.6474137079785578,463.78000000000003,349.85,100,1,"[['v', 1.6474137079785578]]",1,13.94,1.25,2.352586292021442,2,292.2694430000265,[],293.92275399999926,294.4297970420448,295.4308788750204,45,3,3,0
147,005,12.68,0.0,5.66,NaN,463.78000000000003,349.85,100,2,,NaN,NaN,1.25,0,2,299.01481254200917,301.0279144580127,303.0335283750319,303.53872212499846,304.5398027920164,46,3,3,0
148,005,13.45,0.0,5.27,NaN,463.78000000000003,349.85,100,2,,NaN,NaN,0.75,0,2,305.7643446670263,307.77842712501297,309.78378225001507,310.2888745830278,311.2899733330123,47,3,3,0
149,005,10.68,0.0,10.68,2.722518916998524,474.46000000000004,349.85,100,1,"[['n', 2.722518916998524]]",0,10.68,0.75,1.2774810830014758,2,312.0144295830396,314.0289186250302,314.7414818330435,315.2483496670029,316.2494607500266,48,3,3,1
150,005,13.04,0.0,5.48,1.7445486249634996,487.50000000000006,349.85,100,2,"[['n', 1.7445486249634996]]",1,13.04,1.25,2.2554513750365004,2,318.2665160000324,[],320.01684495800873,320.5240710420185,321.5251755420468,49,3,3,0
151,005,0.0,0.0,3.13,1.2135468749911524,3.13,420.79,25,1,"[['n', 1.2135468749911524]]",0,3.13,1.25,2.7864531250088476,1,0.015094167029019445,[],1.2358910840121098,1.7419786250102334,2.7431497090146877,0,4,2,1
152,005,22.97,0.0,6.51,1.8012985410168767,26.099999999999998,420.79,25,1,"[['v', 1.8012985410168767]]",1,22.97,1.25,2.1987014589831233,1,6.763645667000674,[],8.570869833987672,9.077980583999306,10.079152500024065,1,4,2,0
153,005,15.47,0.0,10.27,1.4439430420170538,36.37,420.79,25,2,"[['v', 1.4439430420170538]]",0,10.27,0.75,2.556056957982946,1,13.513796625018585,[],14.96382329199696,15.469594458991196,16.470710667024832,2,4,2,0
154,005,11.2,0.0,6.4,1.740601833036635,36.37,420.79,25,1,"[['v', 1.740601833036635]]",1,0.0,0.75,2.259398166963365,1,19.762387250026222,[],21.50888804200804,22.014753792027477,23.015864334010985,3,4,2,0
155,005,10.39,0.0,6.81,1.8446640410111286,46.76,420.79,25,1,"[['v', 1.8446640410111286]]",1,10.39,0.75,2.1553359589888714,1,26.01269979198696,[],27.863527042034548,28.370626875024755,29.371701458992902,4,4,2,0
156,005,18.77,0.0,8.61,1.6571489589987323,46.76,420.79,25,2,"[['n', 1.6571489589987323]]",1,0.0,1.25,2.3428510410012677,1,32.263950625027064,[],33.92689866700675,34.43204645899823,35.43314958398696,5,4,2,0
157,005,17.94,0.0,9.03,1.7209929170203395,46.76,420.79,25,1,"[['v', 1.7209929170203395]]",1,0.0,0.75,2.2790070829796605,1,39.012444959022105,[],40.739623917033896,41.245240584015846,42.2463087500073,6,4,2,0
158,005,17.59,0.0,9.2,1.3625043340143748,55.959999999999994,420.79,25,1,"[['n', 1.3625043340143748]]",0,9.2,0.75,2.6374956659856252,1,45.2635194589966,[],46.63182887498988,47.137557916983496,48.13865470897872,7,4,2,0
159,005,19.86,0.0,0.0,1.417921042011585,55.959999999999994,420.79,25,2,"[['n', 1.417921042011585]]",1,0.0,1.25,2.582078957988415,1,51.51310287503293,[],52.94065474998206,53.44636191701284,54.447537459025625,8,4,2,1
160,005,0.0,0.0,10.25,1.1876351670362055,66.21,420.79,25,1,"[['n', 1.1876351670362055]]",0,10.25,0.75,2.8123648329637945,1,58.26459712500218,[],59.458039166987874,59.96378225000808,60.96487770898966,9,4,2,1
161,005,19.86,0.0,8.07,1.955676375015173,66.21,420.79,25,1,"[['v', 1.955676375015173]]",1,0.0,1.25,2.044323624984827,1,64.51438150001923,[],66.47593637503451,66.9820955839823,67.9832789170323,10,4,2,0
162,005,13.1,7.73,4.68,1.810009709035512,73.94,420.79,25,2,"[['n', 1.810009709035512]]",1,7.73,0.75,2.189990290964488,1,71.27148549997946,[],73.08917483402183,73.59505075000925,74.59614287503064,11,4,2,1
163,005,18.33,0.0,8.84,1.743083667010069,73.94,420.79,25,1,"[['v', 1.743083667010069]]",1,0.0,0.75,2.256916332989931,1,77.51929183403263,[],79.26829820900457,79.77411470899824,80.77531083399663,12,4,2,0
164,005,16.11,6.99,6.99,1.497986915986985,90.05,420.79,25,1,"[['v', 1.497986915986985]]",1,16.11,0.75,2.502013084013015,1,83.76971891702851,[],85.27386587503133,85.7798267499893,86.78098287503235,13,4,2,1
165,005,12.08,0.0,5.96,1.8995752909686416,90.05,420.79,25,2,"[['n', 1.8995752909686416]]",1,0.0,0.75,2.1004247090313584,1,90.02112829202088,[],91.92667495901696,92.43247179198079,93.43366891698679,14,4,2,0
166,005,17.0,0.0,9.5,1.9135804579709657,99.55,420.79,25,1,"[['n', 1.9135804579709657]]",0,9.5,0.75,2.0864195420290343,1,96.26903916703304,[],98.1910538750235,98.69680245901691,99.69788633403368,15,4,2,0
167,005,16.0,0.0,4.0,1.7423623749637045,99.55,420.79,25,1,"[['v', 1.7423623749637045]]",1,0.0,1.25,2.2576376250362955,1,102.51924116699956,[],104.26746304199332,104.77352783398237,105.77461912500439,16,4,2,0
168,005,10.24,0.0,6.88,1.810511999996379,106.42999999999999,420.79,25,1,"[['n', 1.810511999996379]]",0,6.88,0.75,2.189488000003621,1,109.26830887503456,[],111.08469608402811,111.59159354201984,112.59269729198422,17,4,2,0
169,005,10.68,0.0,10.68,1.887816499976907,117.10999999999999,420.79,25,1,"[['n', 1.887816499976907]]",0,10.68,1.25,2.112183500023093,1,115.51997429202311,[],117.41356587503105,117.92043404199649,118.9215097919805,18,4,2,1
170,005,21.32,0.0,7.34,1.823335166031029,117.10999999999999,420.79,25,1,"[['v', 1.823335166031029]]",1,0.0,1.25,2.176664833968971,1,122.26981329201953,[],124.09914458403364,124.60521329200128,125.60629491700092,19,4,2,0
171,005,20.03,0.0,1.99,1.5313644160050899,117.10999999999999,420.79,25,1,"[['v', 1.5313644160050899]]",1,0.0,1.25,2.46863558399491,1,129.018588292005,[],130.5592871250119,131.06391337502282,132.06510179198813,20,4,2,0
172,005,12.68,0.0,5.66,1.8373622079961933,129.79,420.79,25,2,"[['n', 1.8373622079961933]]",1,12.68,1.25,2.1626377920038067,1,135.76880241703475,[],137.6119982090313,138.11918066698126,139.1202712089871,21,4,2,0
173,005,20.53,0.0,7.73,1.830626375041902,150.32,420.79,25,1,"[['v', 1.830626375041902]]",1,20.53,1.25,2.169373624958098,1,142.52047287498135,[],144.35946150001837,144.86545045900857,145.86651979200542,22,4,2,0
174,005,11.43,0.0,6.29,1.3620042499969713,156.60999999999999,420.79,25,1,"[['n', 1.3620042499969713]]",0,6.29,1.25,2.6379957500030287,1,149.2701583339949,[],150.63799695903435,151.14381491701351,152.14498479198664,23,4,2,0
175,005,25.2,0.0,5.4,1.7861130830133334,181.80999999999997,420.79,25,2,"[['n', 1.7861130830133334]]",1,25.2,0.75,2.2138869169866666,1,156.02117704198463,[],157.81309050001437,158.3204977090354,159.32161766698118,24,4,2,0
176,005,17.73,0.0,3.13,1.8995325000141747,199.53999999999996,420.79,25,2,"[['n', 1.8995325000141747]]",1,17.73,1.25,2.1004674999858253,1,162.2706325839972,[],164.17602225003066,164.68360737501644,165.6847369170282,25,4,2,0
177,005,12.36,0.0,5.82,2.0023198329727165,199.53999999999996,420.79,25,1,"[['v', 2.0023198329727165]]",1,0.0,1.25,1.9976801670272835,1,169.0220236669993,[],171.03027283400297,171.53606208402198,172.53718029201264,26,4,2,0
178,005,13.04,0.0,5.48,1.9776435830281116,199.53999999999996,420.79,25,2,"[['n', 1.9776435830281116]]",1,0.0,0.75,2.0223564169718884,1,175.7717830420006,[],177.75530875002733,178.26108787499834,179.26222837500973,27,4,2,0
179,005,13.45,0.0,5.27,1.8123006250243634,199.53999999999996,420.79,25,1,"[['v', 1.8123006250243634]]",1,0.0,1.25,2.1876993749756366,1,182.02036862500245,[],183.83855575002963,184.3447285000002,185.34579395898618,28,4,2,0
180,005,15.96,0.0,10.02,1.3768664590315893,209.55999999999997,420.79,25,2,"[['v', 1.3768664590315893]]",0,10.02,1.25,2.6231335409684107,1,188.7738338750205,[],190.15648037497886,190.66223104199162,191.6634000419872,29,4,2,0
181,005,11.62,0.0,6.19,1.9612754579866305,215.74999999999997,420.79,25,1,"[['n', 1.9612754579866305]]",0,6.19,1.25,2.0387245420133695,1,195.52155533398036,[],197.48862287501106,197.99549462500727,198.99659837502986,30,4,2,0
182,005,13.94,0.0,5.03,1.874913917039521,215.74999999999997,420.79,25,2,"[['n', 1.874913917039521]]",1,0.0,0.75,2.125086082960479,1,202.27309683401836,[],204.15404945902992,204.66013974999078,205.6612352920347,31,4,2,0
183,005,6.79,0.0,9.92,1.2940415830234997,225.66999999999996,420.79,25,2,"[['v', 1.2940415830234997]]",0,9.92,0.75,2.7059584169765003,1,208.52194033400156,[],209.82184558402514,210.32766191702103,211.32886350003537,32,4,2,1
184,005,15.09,0.0,10.46,1.3311620419844985,236.12999999999997,420.79,25,2,"[['v', 1.3311620419844985]]",0,10.46,0.75,2.6688379580155015,1,214.77293487498537,[],216.11251845903462,216.61827954201726,217.61945266701514,33,4,2,0
185,005,16.6,0.0,9.7,1.425220959004946,245.82999999999996,420.79,25,1,"[['n', 1.425220959004946]]",0,9.7,1.25,2.574779040995054,1,221.0218316250248,[],222.45286424999358,222.95983387500746,223.96092758403393,34,4,2,0
186,005,17.28,0.0,9.36,1.8507234579883516,245.82999999999996,420.79,25,1,"[['v', 1.8507234579883516]]",1,0.0,0.75,2.1492765420116484,1,227.77251229202375,[],229.6290389589849,230.13476824999088,231.13587941700825,35,4,2,0
187,005,10.12,0.0,6.94,1.4956762079964392,252.76999999999995,420.79,25,2,"[['v', 1.4956762079964392]]",0,6.94,1.25,2.504323792003561,1,234.02362941700267,[],235.5253975840169,236.03122429200448,237.03231487498851,36,4,2,0
188,005,14.26,0.0,0.0,1.4550167080014944,252.76999999999995,420.79,25,1,"[['v', 1.4550167080014944]]",1,0.0,1.25,2.5449832919985056,1,240.77336616703542,[],242.23418016702635,242.7388050419977,243.73990583402338,37,4,2,1
189,005,14.72,0.0,4.64,1.7421872499980964,252.76999999999995,420.79,25,2,"[['n', 1.7421872499980964]]",1,0.0,0.75,2.2578127500019036,1,247.526117625006,[],249.27406637498643,249.77989000000525,250.78105958399829,38,4,2,0
190,005,16.26,0.0,9.87,1.5797676669899374,269.03,420.79,25,2,"[['n', 1.5797676669899374]]",1,16.26,0.75,2.4202323330100626,1,253.77469029201893,[],255.36058816697914,255.86663616698934,256.8677722919965,39,4,2,0
191,005,10.95,0.0,6.53,1.5829273750423454,275.55999999999995,420.79,25,2,"[['v', 1.5829273750423454]]",0,6.53,0.75,2.4170726249576546,1,260.02257137501147,[],261.61452954198467,262.1215290420223,263.12261916702846,40,4,2,0
192,005,19.28,0.0,8.36,1.8147785409819335,275.55999999999995,420.79,25,1,"[['v', 1.8147785409819335]]",1,0.0,1.25,2.1852214590180665,1,266.2749028750113,[],268.09818791702855,268.6029197089956,269.6040198340197,41,4,2,0
193,005,15.27,0.0,10.37,1.2359167500399053,285.92999999999995,420.79,25,2,"[['v', 1.2359167500399053]]",0,10.37,1.25,2.7640832499600947,1,273.02666758402484,[],274.26861625001766,274.7744220420136,275.77554695901927,42,4,2,0
194,005,0.0,0.0,7.55,1.1910794170107692,293.47999999999996,420.79,25,1,"[['n', 1.1910794170107692]]",0,7.55,0.75,2.8089205829892308,1,279.7747830420267,[],280.971512041986,281.4777325000032,282.47886779200053,43,4,2,1
195,005,15.7,0.0,10.15,1.1811203330289572,303.62999999999994,420.79,25,1,"[['n', 1.1811203330289572]]",0,10.15,0.75,2.8188796669710428,1,286.02591791702434,[],287.21512295899447,287.7209775419906,288.7220764590311,44,4,2,0
196,005,11.84,0.0,6.08,1.7338920829934068,303.62999999999994,420.79,25,2,"[['n', 1.7338920829934068]]",1,0.0,0.75,2.266107917006593,1,292.2761230840115,[],294.0162995000137,294.52203970903065,295.52317270898493,45,4,2,0
197,005,10.35,0.0,0.0,1.7073720000335015,313.97999999999996,420.79,25,1,"[['v', 1.7073720000335015]]",1,10.35,1.25,2.2926279999664985,1,298.52752058400074,[],300.240742709022,300.7479017089936,301.74899929203093,46,4,2,1
198,005,28.21,0.0,3.89,1.5228135000215843,313.97999999999996,420.79,25,2,"[['n', 1.5228135000215843]]",1,0.0,1.25,2.4771864999784157,1,305.27824858401436,[],306.80730237503303,307.31193854199955,308.3130491669872,47,4,2,0
199,005,10.55,0.0,6.73,1.4362748750136234,320.71,420.79,25,2,"[['v', 1.4362748750136234]]",0,6.73,1.25,2.5637251249863766,1,312.02739433402894,[],313.4693366669817,313.9752518340247,314.97636691702064,48,4,2,0
200,005,10.73,0.0,6.63,1.6345887909992598,320.71,420.79,25,2,"[['n', 1.6345887909992598]]",1,0.0,0.75,2.36541120900074,1,318.77897891699104,[],320.419279291993,320.923912208993,321.92498716700356,49,4,2,0
